File: 02_Appendices/Appendix_C_Experimental_Data/C_1_Materials_Tests/C_1_1_Tensile_tests/C_1_1_4_Impact Smooth 3D/Specimen_RawData_1.csv
Text Inputs : Specimen label;"1"
Dimension : Length;50,00000;mm
Dimension : Final length;100,00000;mm
Test : Rate 1;3,00000;mm/min
General : Unique Identifier;"{A7CABEE3-3337-437A-B917-93F82D2293BE}"

Time;Extension;Load;Strain 1
(sec);(mm);(N);(mm/mm)
0,00000;0,00000;2,97013;0,00009
0,40000;0,01219;8,81397;0,00018
0,80000;0,02652;13,72404;0,00030
1,20000;0,04003;19,02893;0,00042
1,60000;0,05328;24,82263;0,00053
2,00000;0,06672;29,40370;0,00065
2,40000;0,08000;34,94046;0,00077
2,80000;0,09328;38,95438;0,00088
3,20000;0,10667;44,36581;0,00100
3,60000;0,12000;49,52656;0,00111
4,00000;0,13336;52,85112;0,00122
4,40000;0,14661;58,13095;0,00134
4,80000;0,15997;62,06339;0,00145
5,20000;0,17336;66,49407;0,00156
5,60000;0,18664;71,29448;0,00167
6,00000;0,20003;75,42119;0,00179
6,40000;0,21336;79,32230;0,00190
6,80000;0,22661;83,57123;0,00201
7,20000;0,24000;87,34388;0,00212
7,60000;0,25330;91,10712;0,00223
8,00000;0,26672;95,06150;0,00233
8,40000;0,27997;98,66181;0,00243
8,80000;0,29330;100,83641;0,00251
9,20000;0,30672;101,91743;0,00256
9,60000;0,31994;102,60993;0,00259
10,00000;0,33336;102,02398;0,00261
10,40000;0,34667;102,49399;0,00264
10,80000;0,36003;102,47832;0,00266
11,20000;0,37333;102,60053;0,00268
11,60000;0,38661;102,44698;0,00269
12,00000;0,40006;101,19362;0,00268
12,40000;0,41333;101,80464;0,00271
12,80000;0,42661;102,30911;0,00272
13,20000;0,44000;101,69183;0,00274
13,60000;0,45333;102,27779;0,00275
14,00000;0,46669;101,72944;0,00276
14,40000;0,47997;101,51636;0,00278
14,80000;0,49333;102,21825;0,00279
15,20000;0,50669;101,75450;0,00280
15,60000;0,51994;103,03607;0,00281
16,00000;0,53336;101,82344;0,00282
16,40000;0,54672;102,11484;0,00283
16,80000;0,55997;101,89865;0,00284
17,20000;0,57330;101,96758;0,00286
17,60000;0,58661;102,97027;0,00287
18,00000;0,60008;102,08351;0,00288
18,40000;0,61333;102,58486;0,00289
18,80000;0,62664;103,56249;0,00290
19,20000;0,64006;104,70932;0,00294
19,60000;0,65328;107,62655;0,00300
20,00000;0,66667;109,47213;0,00306
20,40000;0,67997;112,02274;0,00312
20,80000;0,69333;114,51381;0,00319
21,20000;0,70667;117,33077;0,00326
21,60000;0,71991;120,86526;0,00334
22,00000;0,73339;123,31561;0,00343
22,40000;0,74669;127,15718;0,00351
22,80000;0,75997;130,53188;0,00360
23,20000;0,77330;133,76558;0,00369
23,60000;0,78664;137,79203;0,00379
24,00000;0,80003;141,52394;0,00389
24,40000;0,81330;145,13677;0,00399
24,80000;0,82669;147,75319;0,00409
25,20000;0,84006;151,85798;0,00419
25,60000;0,85330;155,84683;0,00429
26,00000;0,86667;159,88895;0,00439
26,40000;0,87997;163,49552;0,00449
26,80000;0,89330;165,60431;0,00459
27,20000;0,90669;169,35189;0,00470
27,60000;0,91994;173,24361;0,00481
28,00000;0,93339;176,85331;0,00491
28,40000;0,94664;181,89186;0,00502
28,80000;0,95997;184,55527;0,00513
29,20000;0,97339;188,67886;0,00523
29,60000;0,98661;192,51105;0,00534
30,00000;1,00003;195,95153;0,00545
30,40000;1,01330;199,87146;0,00556
30,80000;1,02667;203,29002;0,00566
31,20000;1,04003;206,29810;0,00577
31,60000;1,05330;209,48793;0,00588
32,00000;1,06669;213,76819;0,00599
32,40000;1,07997;216,37208;0,00609
32,80000;1,09330;220,09145;0,00620
33,20000;1,10669;223,73248;0,00630
33,60000;1,12000;227,24820;0,00641
34,00000;1,13336;229,62019;0,00652
34,40000;1,14664;234,58982;0,00663
34,80000;1,15997;237,22502;0,00673
35,20000;1,17333;240,46185;0,00684
35,60000;1,18661;244,10288;0,00695
36,00000;1,20003;247,62799;0,00706
36,40000;1,21336;251,23144;0,00717
36,80000;1,22667;253,89171;0,00728
37,20000;1,24003;257,30089;0,00739
37,60000;1,25333;260,66618;0,00750
38,00000;1,26669;264,07535;0,00761
38,40000;1,27994;267,76965;0,00771
38,80000;1,29327;270,69000;0,00782
39,20000;1,30672;273,23747;0,00793
39,60000;1,31997;276,87852;0,00803
40,00000;1,33336;280,75769;0,00814
40,40000;1,34669;283,35217;0,00825
40,80000;1,36000;286,31326;0,00836
41,20000;1,37330;289,50623;0,00847
41,60000;1,38661;292,43599;0,00858
42,00000;1,40008;295,99241;0,00869
42,40000;1,41333;299,11958;0,00879
42,80000;1,42661;302,27494;0,00890
43,20000;1,44003;305,15455;0,00901
43,60000;1,45333;308,67653;0,00912
44,00000;1,46669;311,54361;0,00923
44,40000;1,47997;315,04678;0,00934
44,80000;1,49330;317,03024;0,00944
45,20000;1,50672;320,34228;0,00955
45,60000;1,51994;323,79844;0,00966
46,00000;1,53336;327,24834;0,00977
46,40000;1,54672;329,37280;0,00988
46,80000;1,55994;332,98251;0,00999
47,20000;1,57330;335,55506;0,01010
47,60000;1,58661;338,37201;0,01021
48,00000;1,60008;342,51439;0,01032
48,40000;1,61333;343,94637;0,01042
48,80000;1,62664;346,93566;0,01053
49,20000;1,64006;350,12548;0,01064
49,60000;1,65327;352,94869;0,01075
50,00000;1,66666;356,58034;0,01086
50,40000;1,68000;359,32208;0,01097
50,80000;1,69336;361,81943;0,01108
51,20000;1,70669;364,70217;0,01119
51,60000;1,71994;367,53793;0,01130
52,00000;1,73336;371,72104;0,01141
52,40000;1,74669;373,93952;0,01152
52,80000;1,75997;376,10470;0,01163
53,20000;1,77330;378,58011;0,01174
53,60000;1,78664;382,06761;0,01186
54,00000;1,80003;385,84652;0,01197
54,40000;1,81330;388,20286;0,01207
54,80000;1,82669;390,33047;0,01219
55,20000;1,84003;393,77720;0,01230
55,60000;1,85327;396,05210;0,01241
56,00000;1,86666;400,33860;0,01252
56,40000;1,88000;401,93037;0,01263
56,80000;1,89333;404,28988;0,01274
57,20000;1,90669;407,38257;0,01285
57,60000;1,91997;409,87050;0,01296
58,00000;1,93339;412,30517;0,01307
58,40000;1,94664;415,23492;0,01319
58,80000;1,95994;418,17091;0,01330
59,20000;1,97339;419,91314;0,01341
59,60000;1,98664;423,84872;0,01352
60,00000;2,00003;426,51840;0,01363
60,40000;2,01333;428,25430;0,01374
60,80000;2,02666;430,40384;0,01385
61,20000;2,04003;433,93206;0,01397
61,60000;2,05327;436,51089;0,01408
62,00000;2,06669;439,06462;0,01419
62,40000;2,08000;441,95675;0,01430
62,80000;2,09330;443,76161;0,01441
63,20000;2,10672;446,34044;0,01452
63,60000;2,12000;449,26391;0,01464
64,00000;2,13336;451,14085;0,01475
64,40000;2,14664;454,36514;0,01486
64,80000;2,16000;456,05092;0,01497
65,20000;2,17336;459,20941;0,01508
65,60000;2,18661;461,36836;0,01520
66,00000;2,20005;464,43283;0,01531
66,40000;2,21336;466,20010;0,01542
66,80000;2,22661;468,25563;0,01553
67,20000;2,24003;470,85322;0,01564
67,60000;2,25333;473,67015;0,01576
68,00000;2,26669;474,95486;0,01587
68,40000;2,27994;478,45803;0,01599
68,80000;2,29330;480,00910;0,01610
69,20000;2,30669;482,63175;0,01621
69,60000;2,31994;485,33278;0,01632
70,00000;2,33339;487,70476;0,01644
70,40000;2,34666;489,54724;0,01655
70,80000;2,36003;492,37674;0,01667
71,20000;2,37333;493,78676;0,01678
71,60000;2,38664;496,81365;0,01690
72,00000;2,40005;499,99719;0,01701
72,40000;2,41330;501,39786;0,01712
72,80000;2,42661;503,58186;0,01724
73,20000;2,44000;505,75957;0,01735
73,60000;2,45336;508,60471;0,01747
74,00000;2,46669;510,53492;0,01759
74,40000;2,48000;513,19832;0,01770
74,80000;2,49333;514,13523;0,01782
75,20000;2,50669;516,25031;0,01793
75,60000;2,51994;518,81345;0,01805
76,00000;2,53336;519,96028;0,01817
76,40000;2,54672;523,36943;0,01829
76,80000;2,55997;525,48763;0,01840
77,20000;2,57333;527,63401;0,01852
77,60000;2,58661;529,38876;0,01863
78,00000;2,60005;531,26882;0,01875
78,40000;2,61333;533,40266;0,01887
78,80000;2,62661;535,37986;0,01899
79,20000;2,64005;537,78007;0,01910
79,60000;2,65330;539,82618;0,01922
80,00000;2,66666;541,25502;0,01934
80,40000;2,68000;544,19730;0,01946
80,80000;2,69333;544,95558;0,01957
81,20000;2,70669;547,91356;0,01969
81,60000;2,71991;550,41090;0,01981
82,00000;2,73339;552,11233;0,01993
82,40000;2,74669;555,07659;0,02005
82,80000;2,75997;555,64684;0,02017
83,20000;2,77330;557,97501;0,02029
83,60000;2,78663;560,37521;0,02041
84,00000;2,80003;562,71586;0,02053
84,40000;2,81330;564,68053;0,02065
84,80000;2,82669;565,89316;0,02077
85,20000;2,84005;568,33094;0,02089
85,60000;2,85327;570,00108;0,02101
86,00000;2,86669;572,07854;0,02113
86,40000;2,88000;574,08079;0,02125
86,80000;2,89330;576,35880;0,02138
87,20000;2,90669;577,07322;0,02150
87,60000;2,91994;579,75543;0,02162
88,00000;2,93339;580,57327;0,02175
88,40000;2,94666;583,54372;0,02187
88,80000;2,95997;585,08539;0,02199
89,20000;2,97339;586,23222;0,02211
89,60000;2,98658;588,07465;0,02223
90,00000;3,00005;590,23048;0,02236
90,40000;3,01330;592,45205;0,02248
90,80000;3,02669;593,73989;0,02260
91,20000;3,04002;595,87690;0,02272
91,60000;3,05330;597,19919;0,02285
92,00000;3,06669;599,30487;0,02297
92,40000;3,07997;601,68626;0,02309
92,80000;3,09330;602,80492;0,02322
93,20000;3,10669;603,78569;0,02334
93,60000;3,12000;606,64024;0,02347
94,00000;3,13336;607,99387;0,02359
94,40000;3,14666;609,97107;0,02372
94,80000;3,15997;611,50645;0,02384
95,20000;3,17336;613,01049;0,02397
95,60000;3,18661;614,73073;0,02409
96,00000;3,20002;616,61080;0,02422
96,40000;3,21336;617,71688;0,02435
96,80000;3,22663;619,86325;0,02447
97,20000;3,24002;620,98820;0,02460
97,60000;3,25333;623,04055;0,02472
98,00000;3,26669;624,14040;0,02485
98,40000;3,27997;625,85440;0,02498
98,80000;3,29327;627,64045;0,02511
99,20000;3,30672;629,21341;0,02524
99,60000;3,31997;630,33830;0,02536
100,00000;3,33336;632,44086;0,02549
100,40000;3,34666;634,26136;0,02562
100,80000;3,36000;635,90016;0,02575
101,20000;3,37330;636,99372;0,02588
101,60000;3,38658;638,64505;0,02601
102,00000;3,40011;640,53764;0,02614
102,40000;3,41333;641,57480;0,02627
102,80000;3,42663;643,42036;0,02640
103,20000;3,44002;644,77399;0,02653
103,60000;3,45336;647,13033;0,02666
104,00000;3,46669;647,27133;0,02679
104,40000;3,47997;649,94418;0,02692
104,80000;3,49333;651,63621;0,02705
105,20000;3,50672;651,96524;0,02718
105,60001;3,51994;653,54761;0,02731
106,00001;3,53336;654,52210;0,02745
106,40001;3,54669;656,22670;0,02758
106,80001;3,55994;658,29474;0,02772
107,20001;3,57333;658,90891;0,02785
107,60001;3,58661;660,19045;0,02798
108,00001;3,60005;661,91698;0,02812
108,40001;3,61330;663,16724;0,02825
108,80001;3,62663;664,93759;0,02838
109,20001;3,64005;665,46402;0,02852
109,60001;3,65327;667,91750;0,02865
110,00001;3,66669;668,42823;0,02879
110,40001;3,68000;669,59388;0,02892
110,80001;3,69333;671,40497;0,02906
111,20001;3,70669;672,20088;0,02919
111,60001;3,71991;673,80206;0,02933
112,00001;3,73336;675,06796;0,02947
112,40001;3,74666;676,01739;0,02960
112,80001;3,76000;678,48028;0,02974
113,20001;3,77333;679,00042;0,02988
113,60001;3,78666;679,55502;0,03001
114,00001;3,80002;680,85538;0,03015
114,40001;3,81333;682,09623;0,03029
114,80001;3,82669;683,81024;0,03043
115,20001;3,84002;684,84112;0,03056
115,60001;3,85327;685,75921;0,03070
116,00001;3,86666;686,99378;0,03084
116,40001;3,88002;688,05916;0,03098
116,80001;3,89333;690,03948;0,03112
117,20001;3,90669;690,06770;0,03126
117,60001;3,91994;691,49653;0,03140
118,00001;3,93339;692,36136;0,03154
118,40001;3,94666;693,65231;0,03168
118,80001;3,95997;694,99030;0,03182
119,20001;3,97339;695,72036;0,03196
119,60001;3,98660;697,37169;0,03210
120,00001;4,00005;698,20518;0,03224
120,40001;4,01333;698,86632;0,03238
120,80001;4,02669;699,95988;0,03253
121,20001;4,04002;701,22266;0,03267
121,60001;4,05327;702,06244;0,03281
122,00001;4,06672;702,88964;0,03296
122,40001;4,07997;703,93933;0,03310
122,80001;4,09327;706,41162;0,03324
123,20001;4,10669;705,82256;0,03338
123,60001;4,11999;707,96893;0,03353
124,00001;4,13336;708,10369;0,03367
124,40001;4,14663;709,32573;0,03382
124,80001;4,15999;710,69817;0,03396
125,20001;4,17339;711,34050;0,03410
125,60001;4,18660;712,71919;0,03425
126,00001;4,20002;713,45558;0,03440
126,40001;4,21336;713,90052;0,03454
126,80001;4,22661;714,18877;0,03468
127,20001;4,24002;715,36070;0,03483
127,60001;4,25333;716,98381;0,03498
128,00001;4,26672;717,51960;0,03513
128,40001;4,27997;718,34056;0,03527
128,80001;4,29330;719,01428;0,03542
129,20001;4,30672;720,28018;0,03556
129,60001;4,31994;721,80615;0,03571
130,00001;4,33336;722,11321;0,03586
130,40001;4,34666;722,46729;0,03600
130,80001;4,36000;722,80886;0,03615
131,20001;4,37336;724,86438;0,03630
131,60001;4,38663;725,09311;0,03645
132,00001;4,40008;725,94224;0,03660
132,40001;4,41330;727,46198;0,03674
132,80001;4,42663;726,88544;0,03689
133,20001;4,43999;728,75293;0,03704
133,60001;4,45333;729,37962;0,03719
134,00001;4,46669;729,78698;0,03734
134,40001;4,47999;730,09091;0,03749
134,80001;4,49333;731,04347;0,03764
135,20001;4,50669;732,12450;0,03779
135,60001;4,51994;733,19301;0,03794
136,00001;4,53336;733,74449;0,03810
136,40001;4,54672;734,74408;0,03825
136,80001;4,55997;734,86627;0,03840
137,20001;4,57330;736,35778;0,03855
137,60001;4,58660;737,46075;0,03870
138,00001;4,60005;737,04086;0,03886
138,40001;4,61333;737,44822;0,03901
138,80001;4,62663;738,09368;0,03916
139,20001;4,64005;739,75129;0,03931
139,60001;4,65330;740,53775;0,03947
140,00001;4,66669;740,65370;0,03962
140,40001;4,67999;741,42450;0,03977
140,80001;4,69333;741,33677;0,03993
141,20001;4,70666;742,36142;0,04008
141,60001;4,71991;743,69311;0,04024
142,00001;4,73339;742,83769;0,04039
142,40001;4,74669;744,94649;0,04055
142,80001;4,75997;744,73028;0,04070
143,20001;4,77333;745,93979;0,04086
143,60001;4,78663;746,78580;0,04101
144,00001;4,80002;746,40978;0,04117
144,40001;4,81330;747,43759;0,04132
144,80001;4,82669;747,61617;0,04148
145,20001;4,84002;748,44342;0,04164
145,60001;4,85327;749,17348;0,04179
146,00001;4,86666;749,62471;0,04195
146,40001;4,88002;750,63678;0,04211
146,80001;4,89333;751,11622;0,04227
147,20001;4,90669;752,14398;0,04242
147,60001;4,91994;752,30063;0,04258
148,00001;4,93338;752,80201;0,04274
148,40001;4,94663;753,04327;0,04290
148,80001;4,95994;754,38437;0,04306
149,20001;4,97338;755,32440;0,04322
149,60001;4,98660;754,79485;0,04338
150,00001;5,00005;756,03253;0,04354
150,40001;5,01333;755,88841;0,04369
150,80001;5,02669;756,47435;0,04385
151,20001;5,04005;757,12297;0,04401
151,60001;5,05330;757,64940;0,04417
152,00001;5,06669;758,26668;0,04434
152,40001;5,07994;758,47977;0,04450
152,80001;5,09330;759,03749;0,04466
153,20001;5,10669;760,16868;0,04482
153,60001;5,12002;760,93948;0,04498
154,00001;5,13338;760,48202;0,04514
154,40001;5,14666;760,39741;0,04530
154,80001;5,15997;761,19644;0,04546
155,20001;5,17336;761,88263;0,04563
155,60001;5,18660;762,51561;0,04579
156,00001;5,20002;763,23943;0,04595
156,40001;5,21336;762,74434;0,04611
156,80001;5,22666;763,41801;0,04628
157,20001;5,24002;765,26674;0,04644
157,60001;5,25333;764,75288;0,04660
158,00001;5,26669;764,94715;0,04677
158,40001;5,27994;766,24127;0,04693
158,80001;5,29327;765,83391;0,04710
159,20001;5,30672;766,95252;0,04726
159,60001;5,31997;767,07788;0,04742
160,00001;5,33336;767,25334;0,04759
160,40001;5,34669;767,75472;0,04775
160,80001;5,35999;767,57921;0,04792
161,20001;5,37330;767,66070;0,04808
161,60001;5,38660;768,56310;0,04824
162,00001;5,40008;769,77578;0,04842
162,40001;5,41333;769,78202;0,04858
162,80001;5,42663;770,07655;0,04874
163,20001;5,44002;770,68130;0,04891
163,60001;5,45333;771,41142;0,04907
164,00001;5,46669;771,01658;0,04924
164,40001;5,47997;771,38948;0,04941
164,80001;5,49333;771,56806;0,04957
165,20001;5,50672;771,23595;0,04974
165,60001;5,51994;772,13836;0,04991
166,00001;5,53338;772,61776;0,05007
166,40001;5,54669;773,00319;0,05024
166,71601;5,55720;773,80845;0,05037
167,11601;5,57048;773,28519;0,05054
167,51601;5,58367;774,00589;0,05070
167,91601;5,59723;774,87072;0,05087
168,31601;5,61045;774,93340;0,05104
168,71601;5,62381;774,73596;0,05121
169,11601;5,63717;775,21224;0,05138
169,51601;5,65039;775,67911;0,05154
169,91601;5,66378;776,35907;0,05171
170,31601;5,67706;776,74137;0,05188
170,71601;5,69054;777,42133;0,05205
171,11601;5,70384;776,24000;0,05222
171,51601;5,71706;776,70692;0,05239
171,91601;5,73054;777,51847;0,05256
172,31601;5,74378;777,98218;0,05273
172,71601;5,75717;778,08872;0,05290
173,11601;5,77045;778,80002;0,05307
173,51601;5,78373;778,60886;0,05324
173,91601;5,79717;779,00998;0,05341
174,31601;5,81042;779,63350;0,05358
174,71601;5,82384;779,57083;0,05375
175,11601;5,83720;779,21362;0,05392
175,51601;5,85039;779,91551;0,05409
175,91601;5,86381;781,15948;0,05426
176,31601;5,87712;780,92450;0,05443
176,71601;5,89051;781,14383;0,05460
177,11601;5,90384;780,34480;0,05477
177,51601;5,91706;781,03417;0,05495
177,91601;5,93053;782,40661;0,05512
178,31601;5,94375;782,48177;0,05529
178,71601;5,95717;782,09639;0,05547
179,11601;5,97053;781,93340;0,05564
179,51601;5,98373;783,10529;0,05581
179,91601;5,99717;783,13667;0,05599
180,31601;6,01042;782,88596;0,05616
180,71601;6,02384;783,33095;0,05633
181,11601;6,03717;783,03637;0,05651
181,51601;6,05042;783,60355;0,05668
181,91601;6,06384;783,20559;0,05685
182,31601;6,07712;783,89496;0,05703
182,71601;6,09048;784,29291;0,05720
183,11601;6,10384;784,82246;0,05737
183,51601;6,11709;785,19844;0,05755
183,91601;6,13051;785,56510;0,05772
184,31601;6,14375;785,97870;0,05790
184,71601;6,15714;785,15774;0,05807
185,11601;6,17051;784,79107;0,05825
185,51601;6,18373;786,22624;0,05842
185,91601;6,19717;786,21991;0,05860
186,31601;6,21045;785,92850;0,05877
186,71601;6,22381;786,73381;0,05895
187,11601;6,23717;786,47062;0,05913
187,51601;6,25042;786,79649;0,05930
187,91601;6,26387;786,84660;0,05948
188,31601;6,27709;787,03463;0,05965
188,71601;6,29048;787,98411;0,05983
189,11601;6,30384;787,07542;0,06001
189,51601;6,31706;787,68954;0,06018
189,91601;6,33051;788,56060;0,06036
190,31601;6,34375;789,14659;0,06053
190,71601;6,35717;788,06244;0,06072
191,11601;6,37048;788,67972;0,06089
191,51601;6,38372;789,21551;0,06107
191,91601;6,39720;788,71725;0,06124
192,31601;6,41045;789,62287;0,06142
192,71601;6,42381;788,66715;0,06160
193,11601;6,43714;789,82962;0,06178
193,51601;6,45045;789,01500;0,06195
193,91601;6,46384;789,59465;0,06213
194,31601;6,47711;790,24639;0,06231
194,71601;6,49048;790,51591;0,06249
195,11601;6,50387;789,99884;0,06266
195,51601;6,51706;790,53156;0,06284
195,91601;6,53051;790,02390;0,06302
196,31601;6,54384;790,88872;0,06320
196,71601;6,55717;791,50600;0,06338
197,11601;6,57048;790,72267;0,06356
197,51601;6,58370;791,59690;0,06374
197,91601;6,59720;791,03606;0,06392
198,31601;6,61042;792,07318;0,06410
198,71601;6,62381;791,77236;0,06428
199,11601;6,63720;791,71909;0,06446
199,51601;6,65042;792,17656;0,06464
199,91601;6,66378;791,96040;0,06482
200,31601;6,67709;792,55262;0,06500
200,71601;6,69053;791,62829;0,06518
201,11601;6,70384;792,06070;0,06536
201,51601;6,71703;792,40222;0,06554
201,91601;6,73050;791,83187;0,06572
202,31601;6,74381;792,85968;0,06590
202,71601;6,75714;792,36459;0,06608
203,11601;6,77048;792,78136;0,06626
203,51601;6,78372;793,55845;0,06644
203,91601;6,79714;792,89731;0,06662
204,31601;6,81045;792,40529;0,06681
204,71601;6,82384;792,47737;0,06699
205,11601;6,83720;793,67748;0,06717
205,51601;6,85039;793,74639;0,06735
205,91601;6,86381;793,93443;0,06753
206,31601;6,87709;794,96847;0,06771
206,71601;6,89050;793,78719;0,06790
207,11601;6,90384;793,92195;0,06808
207,51601;6,91706;794,28535;0,06826
207,91601;6,93053;794,45457;0,06844
208,31601;6,94375;794,49844;0,06862
208,71601;6,95714;794,20395;0,06880
209,11601;6,97051;794,45457;0,06899
209,51601;6,98370;794,89015;0,06917
209,91601;6,99717;794,44833;0,06935
210,31601;7,01042;796,04015;0,06953
210,71601;7,02387;794,83688;0,06971
211,11601;7,03717;795,59200;0,06989
211,51601;7,05042;795,40405;0,07008
211,91601;7,06384;795,04056;0,07026
212,31601;7,07709;796,25007;0,07045
212,71601;7,09048;796,02133;0,07063
213,11601;7,10384;795,78944;0,07081
213,51601;7,11709;796,66991;0,07100
213,91601;7,13050;796,41612;0,07118
214,31601;7,14375;796,02757;0,07136
214,71601;7,15714;795,75498;0,07155
215,11601;7,17050;795,72676;0,07173
215,51601;7,18372;796,61980;0,07192
215,91601;7,19717;796,30641;0,07210
216,31601;7,21045;796,76080;0,07229
216,71601;7,22381;796,22185;0,07247
217,11601;7,23717;795,92727;0,07265
217,51601;7,25042;796,88616;0,07284
217,91601;7,26384;796,61040;0,07302
218,31601;7,27706;796,69496;0,07321
218,71601;7,29050;796,69813;0,07339
219,11601;7,30387;796,96449;0,07358
219,51601;7,31709;796,79526;0,07376
219,91601;7,33050;797,18065;0,07394
220,31601;7,34378;797,44700;0,07413
220,71601;7,35717;796,85478;0,07431
221,11601;7,37045;797,43760;0,07449
221,51601;7,38367;797,69138;0,07468
221,91601;7,39720;797,58801;0,07486
222,31601;7,41045;797,27471;0,07505
222,71601;7,42381;797,92952;0,07524
223,11601;7,43714;798,12380;0,07542
223,51601;7,45045;798,96050;0,07561
223,91601;7,46381;797,35303;0,07579
224,31601;7,47709;798,13320;0,07598
224,71601;7,49048;797,84496;0,07617
225,11601;7,50387;797,77911;0,07635
225,51601;7,51706;798,69097;0,07653
225,91601;7,53050;798,19905;0,07672
226,31601;7,54381;798,70978;0,07691
226,71601;7,55714;797,74158;0,07709
227,11601;7,57048;797,91388;0,07728
227,51601;7,58367;798,43402;0,07746
227,91601;7,59720;798,06745;0,07765
228,31601;7,61045;798,28361;0,07784
228,71601;7,62381;798,39649;0,07803
229,11601;7,63717;798,88208;0,07821
229,51601;7,65039;798,83197;0,07840
229,91601;7,66384;798,88208;0,07859
230,31601;7,67709;799,22369;0,07877
230,71601;7,69053;798,91663;0,07896
231,11601;7,70384;798,80692;0,07915
231,51601;7,71706;799,20804;0,07933
231,91601;7,73050;799,01060;0,07952
232,31601;7,74378;799,01377;0,07970
232,71601;7,75717;799,40856;0,07989
233,11601;7,77045;798,55938;0,08008
233,51601;7,78372;799,66551;0,08026
233,91601;7,79717;799,25815;0,08045
234,31601;7,81045;799,23309;0,08064
234,71601;7,82384;799,90048;0,08083
235,11601;7,83720;799,54639;0,08101
235,51601;7,85039;799,52450;0,08120
235,91601;7,86381;800,03524;0,08139
236,31601;7,87711;798,88841;0,08157
236,71601;7,89050;800,37676;0,08176
237,11601;7,90384;799,75324;0,08196
237,51601;7,91706;800,25773;0,08214
237,91601;7,93053;800,09475;0,08233
238,31601;7,94375;800,61173;0,08252
238,71601;7,95717;799,69680;0,08270
239,11601;7,97053;800,02267;0,08289
239,51601;7,98372;800,40498;0,08308
239,91601;7,99717;800,33606;0,08326
240,31601;8,01042;799,37717;0,08345
240,71601;8,02384;800,27338;0,08364
241,11601;8,03714;800,24516;0,08383
241,51601;8,05039;800,70887;0,08402
241,91601;8,06384;800,08535;0,08421
242,31601;8,07711;799,58402;0,08440
242,71601;8,09047;801,21970;0,08459
243,11601;8,10384;800,58984;0,08477
243,51601;8,11708;800,96275;0,08496
243,91601;8,13050;800,89383;0,08515
244,31601;8,14375;801,31991;0,08534
244,71601;8,15714;802,23177;0,08553
245,11601;8,17050;800,71520;0,08571
245,51601;8,18372;800,96275;0,08590
245,91601;8,19717;801,41081;0,08609
246,31601;8,21045;801,01602;0,08628
246,71601;8,22381;801,64270;0,08647
247,11601;8,23717;801,23842;0,08665
247,51601;8,25039;801,01285;0,08684
247,91601;8,26386;801,13197;0,08704
248,31601;8,27708;801,47032;0,08722
248,71601;8,29047;801,42021;0,08741
249,11601;8,30384;801,53923;0,08760
249,51601;8,31706;801,20396;0,08779
249,91601;8,33050;800,82482;0,08798
250,31601;8,34375;801,67716;0,08817
250,71601;8,35717;802,04066;0,08836
251,11601;8,37048;801,71162;0,08855
251,51601;8,38369;801,61449;0,08873
251,91601;8,39720;801,21337;0,08893
252,31601;8,41042;801,73351;0,08912
252,71601;8,42381;801,52042;0,08930
253,11601;8,43714;801,88392;0,08949
253,51601;8,45045;801,44210;0,08968
253,91601;8,46384;801,96541;0,08987
254,31601;8,47708;802,26939;0,09006
254,71601;8,49047;801,64894;0,09025
255,11601;8,50384;802,31950;0,09044
255,51601;8,51703;802,01244;0,09063
255,91601;8,53050;801,48596;0,09082
256,31601;8,54384;801,87451;0,09101
256,71601;8,55717;801,81817;0,09120
257,11601;8,57045;802,34455;0,09139
257,51601;8,58369;802,44485;0,09157
257,91601;8,59720;802,99005;0,09176
258,31601;8,61042;802,56704;0,09195
258,71601;8,62378;801,99987;0,09214
259,11601;8,63720;802,60150;0,09233
259,51601;8,65042;802,87727;0,09252
259,91601;8,66384;802,41980;0,09271
260,31601;8,67708;802,30692;0,09290
260,71601;8,69053;802,44793;0,09309
261,11601;8,70384;803,11224;0,09328
261,51601;8,71703;802,88975;0,09347
261,91601;8,73053;802,76132;0,09366
262,31601;8,74378;802,52001;0,09385
262,71601;8,75714;801,94036;0,09404
263,11601;8,77050;803,24700;0,09423
263,51601;8,78375;803,23443;0,09442
263,91601;8,79717;802,35079;0,09461
264,31601;8,81042;803,62931;0,09480
264,71601;8,82384;803,40989;0,09500
265,11601;8,83720;803,31592;0,09519
265,51601;8,85039;803,63862;0,09537
265,91601;8,86378;802,82399;0,09556
266,31601;8,87708;802,87093;0,09575
266,71601;8,89050;803,20621;0,09594
267,11601;8,90384;803,60416;0,09613
267,51601;8,91703;803,74833;0,09632
267,91601;8,93053;802,99322;0,09652
268,31601;8,94375;803,22819;0,09671
268,71601;8,95717;803,23443;0,09690
269,11601;8,97050;804,33739;0,09709
269,51601;8,98369;803,36602;0,09727
269,91601;8,99717;803,42870;0,09747
270,31601;9,01042;803,55089;0,09766
270,71601;9,02386;804,21837;0,09785
271,11601;9,03717;803,57287;0,09804
271,51601;9,05042;804,03034;0,09823
271,91601;9,06384;803,92063;0,09842
272,31601;9,07708;804,01469;0,09861
272,71601;9,09047;804,05539;0,09880
273,11601;9,10384;804,07104;0,09900
273,51601;9,11708;804,18698;0,09918
273,91601;9,13050;804,31858;0,09938
274,31601;9,14378;804,55048;0,09957
274,71601;9,15717;804,89516;0,09976
275,11601;9,17050;805,26182;0,09995
275,51601;9,18369;804,44394;0,10013
275,91601;9,19717;804,59751;0,10033
276,31601;9,21047;805,05181;0,10052
276,71601;9,22381;804,57870;0,10071
277,11601;9,23717;805,07686;0,10090
277,51601;9,25042;804,66019;0,10109
277,91601;9,26386;804,66019;0,10128
278,31601;9,27708;803,96459;0,10147
278,71601;9,29047;804,50345;0,10166
279,11601;9,30383;805,48115;0,10185
279,51601;9,31708;804,57553;0,10204
279,91601;9,33050;805,20222;0,10223
280,31601;9,34378;804,87328;0,10243
280,71601;9,35717;804,88576;0,10262
281,11601;9,37047;804,96408;0,10281
281,51601;9,38372;804,53483;0,10300
281,91601;9,39720;804,84813;0,10318
282,31601;9,41044;804,60375;0,10338
282,71601;9,42381;804,73227;0,10357
283,11601;9,43714;805,23985;0,10376
283,51601;9,45042;805,06755;0,10395
283,91601;9,46381;804,77614;0,10414
284,31601;9,47708;805,47482;0,10433
284,71601;9,49050;805,09260;0,10452
285,11601;9,50386;805,03616;0,10471
285,51601;9,51705;805,29628;0,10490
285,91601;9,53050;805,75375;0,10509
286,31601;9,54381;805,12073;0,10528
286,71601;9,55714;804,91398;0,10547
287,11601;9,57045;806,01377;0,10566
287,51601;9,58366;805,91040;0,10585
287,91601;9,59720;805,74742;0,10605
288,31601;9,61044;805,52809;0,10623
288,71601;9,62384;805,21479;0,10642
289,11601;9,63717;805,78821;0,10662
289,51601;9,65042;805,49680;0,10681
289,91601;9,66381;806,20805;0,10700
290,31601;9,67708;805,60334;0,10719
290,71601;9,69053;805,92921;0,10738
291,11601;9,70381;805,97624;0,10757
291,51601;9,71703;806,33024;0,10776
291,91601;9,73050;805,94169;0,10795
292,31601;9,74378;806,21121;0,10815
292,71601;9,75717;806,17676;0,10834
293,11601;9,77047;805,85089;0,10852
293,51601;9,78375;806,46193;0,10872
293,91601;9,79717;806,17052;0,10891
294,31601;9,81042;805,81950;0,10910
294,71601;9,82383;805,96991;0,10929
295,11601;9,83717;806,24567;0,10948
295,51601;9,85039;805,93238;0,10967
295,91601;9,86378;806,38668;0,10986
296,31601;9,87711;806,32716;0,11005
296,71601;9,89053;806,13596;0,11024
297,11601;9,90384;806,34905;0,11043
297,51601;9,91705;806,45252;0,11062
297,91601;9,93053;806,20181;0,11082
298,31601;9,94375;806,39925;0,11100
298,71601;9,95714;806,56838;0,11120
299,11601;9,97050;806,23627;0,11139
299,51601;9,98372;806,68125;0,11158
299,91601;9,99717;806,73452;0,11177
300,31601;10,01044;806,57778;0,11196
300,71601;10,02386;806,62798;0,11215
301,11601;10,03717;807,01336;0,11234
301,51601;10,05039;807,57421;0,11253
301,91601;10,06383;806,95068;0,11272
302,31601;10,07711;807,22962;0,11292
302,71601;10,09044;806,76582;0,11310
303,11601;10,10383;806,63422;0,11329
303,51601;10,11708;807,61807;0,11349
303,91601;10,13050;807,15436;0,11368
304,31601;10,14378;807,05406;0,11387
304,71601;10,15717;807,32359;0,11406
305,11601;10,17053;807,45202;0,11425
305,51601;10,18372;807,40191;0,11444
305,91601;10,19717;807,56173;0,11463
306,31601;10,21044;807,58994;0,11482
306,71601;10,22381;807,55856;0,11501
307,11601;10,23714;807,16060;0,11520
307,51601;10,25042;808,42031;0,11539
307,91601;10,26386;807,20764;0,11559
308,31601;10,27708;807,42380;0,11578
308,71601;10,29050;807,67768;0,11597
309,11601;10,30386;807,50221;0,11616
309,51601;10,31705;808,89342;0,11635
309,91601;10,33050;807,54915;0,11654
310,31601;10,34375;807,40508;0,11673
310,71601;10,35717;808,31684;0,11692
311,11601;10,37044;808,41715;0,11711
311,51601;10,38369;808,53933;0,11730
311,91601;10,39720;808,27298;0,11749
312,31601;10,41044;808,01295;0,11768
312,71601;10,42383;808,25733;0,11787
313,11601;10,43714;807,74343;0,11806
313,51601;10,45044;808,04424;0,11825
313,91601;10,46381;808,41715;0,11844
314,31601;10,47708;808,15395;0,11863
314,71601;10,49047;808,59261;0,11882
315,11601;10,50383;808,08811;0,11901
315,51601;10,51705;808,69915;0,11920
315,91602;10,53053;808,03800;0,11939
316,31602;10,54383;808,66152;0,11958
316,71602;10,55717;808,47042;0,11977
317,11602;10,57044;807,99730;0,11996
317,51602;10,58369;808,72420;0,12015
317,91602;10,59720;808,95294;0,12034
318,31602;10,61042;808,20406;0,12053
318,71602;10,62383;808,57072;0,12072
319,11602;10,63720;808,55191;0,12092
319,51602;10,65044;809,38227;0,12110
319,91602;10,66383;808,86837;0,12129
320,31602;10,67708;808,73044;0,12148
320,71602;10,69053;809,15662;0,12167
321,11602;10,70381;808,44220;0,12186
321,51602;10,71700;809,03126;0,12205
321,91602;10,73050;809,57655;0,12224
322,31602;10,74381;808,91531;0,12243
322,71602;10,75717;809,28821;0,12262
323,11602;10,77047;809,46367;0,12281
323,51602;10,78375;809,49813;0,12300
323,91602;10,79717;808,28238;0,12319
324,31602;10,81044;809,40416;0,12338
324,71602;10,82383;809,20048;0,12357
325,11602;10,83720;809,65487;0,12376
325,51602;10,85039;809,65171;0,12395
325,91602;10,86380;809,07205;0,12414
326,31602;10,87708;809,83657;0,12433
326,71602;10,89050;809,08770;0,12452
327,11602;10,90383;810,40999;0,12471
327,51602;10,91708;810,11234;0,12490
327,91602;10,93053;810,05283;0,12509
328,31602;10,94375;809,68933;0,12528
328,71602;10,95717;810,41623;0,12547
329,11602;10,97050;810,37236;0,12566
329,51602;10,98369;810,49148;0,12585
329,91602;10,99717;810,07155;0,12604
330,31602;11,01041;810,06214;0,12623
330,71602;11,02383;810,15928;0,12642
331,11602;11,03720;810,39434;0,12661
331,51602;11,05042;810,70457;0,12680
331,91602;11,06383;810,11858;0,12699
332,31602;11,07708;810,19690;0,12718
332,71602;11,09047;810,72645;0,12737
333,11602;11,10381;810,45702;0,12756
333,51602;11,11708;810,77032;0,12774
333,91602;11,13050;811,25293;0,12794
334,31602;11,14375;810,83616;0,12812
334,71602;11,15717;810,41623;0,12831
335,11602;11,17053;810,92073;0,12850
335,51602;11,18375;810,83300;0,12869
335,91602;11,19717;811,73228;0,12888
336,31602;11,21044;810,57604;0,12907
336,71602;11,22380;810,77972;0,12926
337,11602;11,23714;811,25917;0,12945
337,51602;11,25041;811,25917;0,12964
337,91602;11,26386;811,10559;0,12983
338,31602;11,27705;811,64772;0,13002
338,71602;11,29047;811,55682;0,13021
339,11602;11,30386;812,12083;0,13040
339,51602;11,31708;811,80753;0,13059
339,91602;11,33050;811,92972;0,13078
340,31602;11,34378;811,62266;0,13097
340,71602;11,35717;811,51295;0,13116
341,11602;11,37044;811,72921;0,13135
341,51602;11,38369;812,45610;0,13153
341,91602;11,39720;812,72563;0,13172
342,31602;11,41047;811,89210;0,13191
342,71602;11,42383;811,56306;0,13210
343,11602;11,43720;812,60651;0,13229
343,51602;11,45044;812,51254;0,13248
343,91602;11,46383;812,40600;0,13267
344,31602;11,47708;812,18034;0,13286
344,71602;11,49047;811,97042;0,13305
345,11602;11,50383;812,35897;0,13324
345,51602;11,51702;812,29946;0,13343
345,91602;11,53050;813,08279;0,13362
346,31602;11,54383;812,20232;0,13381
346,71602;11,55717;812,62849;0,13400
347,11602;11,57050;812,44987;0,13419
347,51602;11,58369;812,82277;0,13438
347,91602;11,59719;813,37113;0,13457
348,31602;11,61044;813,07972;0,13476
348,71602;11,62378;812,06132;0,13494
349,11602;11,63717;813,15171;0,13513
349,51602;11,65039;813,41499;0,13532
349,91602;11,66380;813,62175;0,13551
350,31602;11,67708;812,85723;0,13570
350,71602;11,69053;813,06398;0,13589
351,11602;11,70383;812,75692;0,13608
351,51602;11,71705;813,54659;0,13626
351,91602;11,73050;813,00447;0,13645
352,31602;11,74378;813,19250;0,13664
352,71602;11,75714;813,05150;0,13683
353,11602;11,77044;813,27399;0,13702
353,51602;11,78375;813,90068;0,13721
353,91602;11,79719;813,30212;0,13740
354,31602;11,81044;814,13249;0,13759
354,71602;11,82386;814,02911;0,13778
355,11602;11,83719;813,91940;0,13796
355,51602;11,85038;813,84741;0,13816
355,91602;11,86378;813,85989;0,13834
356,31602;11,87708;814,06357;0,13853
356,71602;11,89050;813,49332;0,13872
357,11602;11,90383;813,82543;0,13890
357,51602;11,91705;813,45569;0,13909
357,91602;11,93053;814,06040;0,13928
358,31602;11,94375;814,24844;0,13947
358,71602;11,95716;813,98841;0,13965
359,11602;11,97053;814,66520;0,13984
359,51602;11,98372;814,42706;0,14003
359,91602;11,99717;813,92573;0,14022
360,31602;12,01044;814,41449;0,14040
360,71602;12,02383;814,37379;0,14059
361,11602;12,03716;814,13249;0,14078
361,51602;12,05041;814,17011;0,14097
361,91602;12,06386;814,49598;0,14116
362,31602;12,07714;814,80620;0,14135
362,71602;12,09047;814,44271;0,14153
363,11602;12,10383;814,71223;0,14172
363,51602;12,11708;815,02870;0,14191
363,91602;12,13047;815,59895;0,14210
364,31602;12,14375;814,80304;0,14229
364,71602;12,15717;814,47409;0,14247
365,11602;12,17053;815,55508;0,14266
365,51602;12,18372;815,56132;0,14285
365,91602;12,19719;815,17911;0,14304
366,31602;12,21044;815,84333;0,14322
366,71602;12,22380;815,25743;0,14341
367,11602;12,23714;815,23238;0,14360
367,51602;12,25041;815,57073;0,14379
367,91602;12,26386;815,41725;0,14398
368,31602;12,27708;816,10344;0,14416
368,71602;12,29047;815,12891;0,14435
369,11602;12,30386;815,87778;0,14454
369,51602;12,31705;815,47052;0,14472
369,91602;12,33053;815,62400;0,14491
370,31602;12,34375;815,84649;0,14510
370,71602;12,35717;816,22247;0,14529
371,11602;12,37044;816,11592;0,14548
371,51602;12,38369;815,98749;0,14566
371,91602;12,39719;816,23504;0,14585
372,31602;12,41041;816,17860;0,14604
372,71602;12,42383;815,77757;0,14622
373,11602;12,43717;816,05958;0,14641
373,51602;12,45044;816,22247;0,14660
373,91602;12,46383;816,07839;0,14679
374,31602;12,47708;816,70815;0,14697
374,71602;12,49047;816,68003;0,14716
375,11602;12,50383;816,63299;0,14735
375,51602;12,51702;816,57032;0,14753
375,91602;12,53050;816,57656;0,14772
376,31602;12,54383;817,89577;0,14791
376,71602;12,55717;816,54526;0,14810
377,11602;12,57047;816,90559;0,14828
377,51602;12,58372;816,94005;0,14847
377,91602;12,59719;816,37288;0,14866
378,31602;12,61041;817,14373;0,14884
378,71602;12,62380;816,91500;0,14903
379,11602;12,63716;817,29097;0,14922
379,51602;12,65041;816,61101;0,14940
379,91602;12,66380;817,41009;0,14959
380,31602;12,67711;817,33176;0,14977
380,71602;12,69053;818,17778;0,14996
381,11602;12,70383;818,25294;0,15015
381,51602;12,71705;817,74844;0,15034
381,91602;12,73053;818,17154;0,15053
382,31602;12,74377;817,87379;0,15071
382,71602;12,75714;817,91766;0,15090
383,11602;12,77047;818,40334;0,15108
383,51602;12,78372;817,60744;0,15127
383,91602;12,79716;817,30355;0,15146
384,31602;12,81044;819,36223;0,15165
384,71602;12,82386;818,28432;0,15183
385,11602;12,83722;818,33759;0,15202
385,51602;12,85041;817,86755;0,15221
385,91602;12,86380;818,33126;0,15239
386,31602;12,87708;818,57573;0,15258
386,71602;12,89047;818,97369;0,15277
387,11602;12,90383;819,24628;0,15295
387,51602;12,91705;818,86714;0,15314
387,91602;12,93053;818,72921;0,15332
388,31602;12,94377;818,98617;0,15351
388,71602;12,95717;818,63208;0,15370
389,11602;12,97053;819,65048;0,15388
389,51602;12,98369;818,74803;0,15407
389,91602;12,99716;818,94854;0,15425
390,31602;13,01041;818,96111;0,15444
390,71602;13,02383;819,03627;0,15463
391,11602;13,03716;819,66612;0,15481
391,51602;13,05041;819,63791;0,15499
391,91602;13,06383;818,82952;0,15518
392,31602;13,07711;819,50948;0,15536
392,71602;13,09047;819,34966;0,15555
393,11602;13,10383;819,17420;0,15574
393,51602;13,11708;819,78831;0,15592
393,91602;13,13050;819,40917;0,15611
394,31602;13,14375;819,87604;0,15630
394,71602;13,15714;819,12410;0,15648
395,11602;13,17050;819,66612;0,15667
395,51602;13,18372;819,72256;0,15685
395,91602;13,19716;819,34026;0,15704
396,31602;13,21047;820,15181;0,15722
396,71602;13,22383;820,12359;0,15741
397,11602;13,23716;820,31786;0,15760
397,51602;13,25041;820,48392;0,15778
397,91602;13,26386;820,12676;0,15796
398,31602;13,27705;820,69393;0,15815
398,71602;13,29047;820,23954;0,15833
399,11602;13,30386;819,81653;0,15852
399,51602;13,31708;820,30846;0,15870
399,91602;13,33053;821,26418;0,15889
400,31602;13,34377;820,99475;0,15907
400,71602;13,35716;822,02246;0,15925
401,11602;13,37044;820,12992;0,15944
401,51602;13,38369;820,49333;0,15962
401,91602;13,39719;820,80355;0,15981
402,31602;13,41047;820,88821;0,15999
402,71602;13,42380;820,99475;0,16018
403,11602;13,43716;821,22348;0,16036
403,51602;13,45044;821,63708;0,16055
403,91602;13,46383;820,94455;0,16073
404,31602;13,47708;821,17021;0,16091
404,71602;13,49047;821,74987;0,16110
405,11602;13,50386;821,58064;0,16128
405,51602;13,51705;821,42083;0,16147
405,91602;13,53050;821,43648;0,16165
406,31602;13,54380;821,31429;0,16184
406,71602;13,55714;822,94997;0,16202
407,11602;13,57047;821,46786;0,16220
407,51602;13,58369;822,05068;0,16239
407,91602;13,59722;822,50191;0,16257
408,31602;13,61044;822,17911;0,16275
408,71602;13,62380;822,73688;0,16294
409,11602;13,63716;821,84700;0,16313
409,51602;13,65041;822,07574;0,16331
409,91602;13,66380;822,30447;0,16350
410,31602;13,67708;822,23238;0,16368
410,71602;13,69053;822,85600;0,16387
411,11602;13,70383;822,49558;0,16405
411,51602;13,71705;822,86540;0,16423
411,91602;13,73053;823,00324;0,16442
412,31602;13,74377;822,72748;0,16460
412,71602;13,75714;823,25703;0,16479
413,11602;13,77047;823,38862;0,16497
413,51602;13,78375;822,82778;0,16515
413,91602;13,79716;823,16613;0,16533
414,31602;13,81041;822,40161;0,16552
414,71602;13,82383;824,04353;0,16570
415,11602;13,83719;822,73372;0,16589
415,51602;13,85041;823,71766;0,16607
415,91602;13,86383;822,98126;0,16626
416,31602;13,87711;822,63974;0,16644
416,71602;13,89050;824,00590;0,16662
417,11602;13,90383;823,62993;0,16681
417,51602;13,91705;823,95580;0,16699
417,91602;13,93052;824,14690;0,16718
418,31602;13,94377;824,24097;0,16736
418,71602;13,95716;824,04036;0,16754
419,11602;13,97053;823,54536;0,16773
419,51602;13,98372;824,31305;0,16791
419,91602;13,99716;823,80222;0,16809
420,31602;14,01041;824,05293;0,16828
420,71602;14,02383;823,62369;0,16846
421,11602;14,03713;824,38821;0,16864
421,51602;14,05038;824,47911;0,16883
421,91602;14,06383;823,80539;0,16901
422,31602;14,07714;824,74230;0,16919
422,71602;14,09053;824,70784;0,16938
423,11602;14,10386;824,81438;0,16956
423,51602;14,11708;824,89895;0,16975
423,91602;14,13047;824,98984;0,16993
424,31602;14,14374;824,25345;0,17011
424,71602;14,15716;824,92093;0,17029
425,11602;14,17050;824,78300;0,17047
425,51602;14,18372;825,46612;0,17066
425,91602;14,19719;824,44148;0,17084
426,31602;14,21047;825,05560;0,17102
426,71602;14,22383;824,96163;0,17120
427,11602;14,23716;825,21234;0,17138
427,51602;14,25038;825,70110;0,17157
427,91602;14,26386;825,64475;0,17175
428,31602;14,27708;826,27144;0,17193
428,71602;14,29047;825,73872;0,17212
429,11602;14,30383;826,52206;0,17230
429,51602;14,31705;825,43166;0,17248
429,91602;14,33053;825,29066;0,17266
430,31602;14,34377;825,47860;0,17284
430,71602;14,35719;825,73555;0,17303
431,11602;14,37047;826,19935;0,17321
431,51602;14,38369;826,30897;0,17339
431,91602;14,39719;826,24629;0,17357
432,31602;14,41041;825,63842;0,17375
432,71602;14,42380;826,40927;0,17394
433,11602;14,43714;826,60979;0,17412
433,51602;14,45044;826,18054;0,17430
433,91602;14,46386;826,07083;0,17448
434,31602;14,47711;825,97062;0,17466
434,71602;14,49050;826,76020;0,17485
435,11602;14,50383;826,19935;0,17503
435,51602;14,51705;827,27093;0,17521
435,91602;14,53050;826,94199;0,17539
436,31602;14,54380;827,18320;0,17557
436,71602;14,55716;826,61612;0,17576
437,11602;14,57047;826,38105;0,17594
437,51602;14,58372;827,54046;0,17611
437,91602;14,59722;827,09864;0,17630
438,31602;14,61041;827,97911;0,17648
438,71602;14,62380;826,70385;0,17666
439,11602;14,63719;826,99526;0,17684
439,51602;14,65044;827,54670;0,17702
439,91602;14,66380;827,49659;0,17721
440,31602;14,67708;827,22399;0,17739
440,71602;14,69052;827,49343;0,17757
441,11602;14,70383;827,64067;0,17775
441,51602;14,71702;827,81306;0,17793
441,91602;14,73050;828,01674;0,17811
442,31602;14,74380;827,26469;0,17829
442,71602;14,75716;827,19261;0,17847
443,11602;14,77050;828,76878;0,17865
443,51602;14,78374;828,29250;0,17884
443,91602;14,79716;828,07001;0,17902
444,31602;14,81044;827,96970;0,17920
444,71602;14,82383;827,93841;0,17938
445,11602;14,83719;828,90345;0,17956
445,51602;14,85041;828,96613;0,17974
445,91602;14,86377;828,51183;0,17992
446,31602;14,87708;828,73115;0,18010
446,71602;14,89050;828,40212;0,18028
447,11602;14,90386;829,66490;0,18046
447,51602;14,91705;829,09148;0,18064
447,91602;14,93052;829,30764;0,18082
448,31602;14,94374;828,73115;0,18101
448,71602;14,95716;828,71858;0,18118
449,11602;14,97052;828,91919;0,18136
449,51602;14,98369;828,39895;0,18154
449,91602;14,99716;828,95989;0,18172
450,31602;15,01041;828,96929;0,18190
450,71602;15,02386;829,92185;0,18208
451,11602;15,03719;829,36725;0,18226
451,51602;15,05041;830,13177;0,18244
451,91602;15,06383;829,68371;0,18262
452,31602;15,07710;829,86858;0,18280
452,71602;15,09047;829,10405;0,18298
453,11602;15,10383;829,47379;0,18316
453,51602;15,11711;830,28842;0,18334
453,91602;15,13050;829,87482;0,18353
454,31602;15,14374;830,48269;0,18370
454,71602;15,15716;830,81173;0,18388
455,11602;15,17052;830,15058;0,18406
455,51602;15,18371;830,80856;0,18424
455,91602;15,19716;830,66756;0,18442
456,31602;15,21047;830,45457;0,18460
456,71602;15,22383;831,04987;0,18478
457,11602;15,23713;830,80856;0,18496
457,51602;15,25041;831,09057;0,18514
457,91602;15,26386;831,58882;0,18532
458,31602;15,27708;830,06602;0,18550
458,71602;15,29050;830,81797;0,18568
459,11602;15,30386;830,78351;0,18586
459,51602;15,31708;831,68279;0,18604
459,91602;15,33050;831,16582;0,18622
460,31602;15,34377;831,07185;0,18640
460,71602;15,35716;831,50733;0,18658
461,11602;15,37044;831,41960;0,18675
461,51602;15,38369;831,40712;0,18693
461,91602;15,39719;831,42584;0,18712
462,31602;15,41049;831,46663;0,18730
462,71602;15,42383;832,09015;0,18747
463,11602;15,43716;831,76745;0,18765
463,51602;15,45044;832,11837;0,18783
463,91602;15,46383;832,10897;0,18801
464,31602;15,47708;831,54812;0,18819
464,71602;15,49049;831,74240;0,18837
465,11602;15,50386;832,30007;0,18855
465,51602;15,51705;832,05886;0,18873
465,91602;15,53052;832,04005;0,18890
466,31602;15,54380;832,27819;0,18908
466,71602;15,55713;832,06510;0,18926
467,11602;15,57047;832,06194;0,18944
467,51602;15,58366;833,54404;0,18961
467,91602;15,59722;832,45682;0,18979
468,31602;15,61044;832,71684;0,18997
468,71602;15,62383;832,56643;0,19015
469,11602;15,63716;832,47246;0,19033
469,51602;15,65038;833,69138;0,19050
469,91602;15,66383;832,89230;0,19068
470,31602;15,67708;832,77635;0,19086
470,71602;15,69052;833,06152;0,19104
471,11602;15,70383;832,96755;0,19121
471,51602;15,71705;833,86060;0,19139
471,91602;15,73052;833,90754;0,19157
472,31602;15,74380;833,16807;0,19175
472,71602;15,75716;833,07410;0,19192
473,11602;15,77044;833,49710;0,19210
473,51602;15,78374;834,23341;0,19228
473,91602;15,79716;833,05836;0,19245
474,31602;15,81044;833,93576;0,19263
474,71602;15,82383;833,60672;0,19281
475,11602;15,83719;834,23341;0,19299
475,51602;15,85041;834,69087;0,19316
475,91602;15,86383;833,67564;0,19334
476,31602;15,87710;834,23341;0,19352
476,71602;15,89052;834,15508;0,19369
477,11602;15,90383;834,41520;0,19387
477,51602;15,91705;835,28003;0,19405
477,91602;15,93052;834,46214;0,19423
478,31602;15,94377;834,15508;0,19441
478,71602;15,95716;833,92952;0,19458
479,11602;15,97052;835,18913;0,19476
479,51602;15,98374;834,49353;0,19493
479,91602;15,99716;834,51858;0,19511
480,31602;16,01044;835,12962;0,19528
480,71602;16,02383;834,64701;0,19546
481,11602;16,03716;834,54680;0,19564
481,51602;16,05038;835,47113;0,19582
481,91602;16,06383;834,96356;0,19599
482,31602;16,07713;835,22359;0,19617
482,71602;16,09047;835,27369;0,19635
483,11602;16,10386;835,10457;0,19652
483,51602;16,11708;835,54005;0,19670
483,91602;16,13049;835,50243;0,19688
484,31602;16,14377;835,49935;0,19705
484,71602;16,15716;835,53698;0,19723
485,11602;16,17052;835,47113;0,19740
485,51602;16,18371;835,50876;0,19758
485,91602;16,19716;835,33637;0,19775
486,31602;16,21044;836,52399;0,19793
486,71602;16,22380;836,27012;0,19811
487,11602;16,23716;836,42369;0,19828
487,51602;16,25041;835,83463;0,19846
487,91602;16,26386;836,64618;0,19864
488,31602;16,27707;837,25089;0,19881
488,71602;16,29046;835,40529;0,19899
489,11602;16,30383;836,67124;0,19916
489,51602;16,31705;836,73708;0,19934
489,91602;16,33049;836,18239;0,19952
490,31602;16,34374;837,39823;0,19969
490,71602;16,35716;837,00651;0,19987
491,11602;16,37046;836,95641;0,20004
491,51602;16,38371;837,09108;0,20022
491,91602;16,39719;837,14435;0,20039
492,31602;16,41041;837,83064;0,20057
492,71602;16,42380;836,78095;0,20074
493,11602;16,43716;836,39864;0,20092
493,51602;16,45044;837,36060;0,20109
493,91602;16,46383;837,93085;0,20127
494,31602;16,47707;837,63637;0,20144
494,71602;16,49049;837,31981;0,20162
495,11602;16,50386;837,62063;0,20180
495,51602;16,51705;837,32922;0,20197
495,91602;16,53052;837,82747;0,20214
496,31602;16,54383;838,35078;0,20232
496,71602;16,55713;837,76480;0,20250
497,11602;16,57047;838,12829;0,20268
497,51602;16,58368;838,32880;0,20285
497,91602;16,59719;838,49179;0,20302
498,31602;16,61041;838,61398;0,20320
498,71602;16,62383;838,04997;0,20337
499,11602;16,63719;838,02491;0,20355
499,51602;16,65041;838,42911;0,20372
499,91602;16,66380;839,18115;0,20390
500,31602;16,67710;838,41346;0,20407
500,71602;16,69052;838,93361;0,20425
501,11602;16,70383;838,58259;0,20442
501,51602;16,71705;839,34087;0,20459
501,91602;16,73052;839,13412;0,20477
502,31602;16,74380;838,77686;0,20494
502,71602;16,75716;838,54813;0,20512
503,11602;16,77047;838,88657;0,20529
503,51602;16,78374;839,29077;0,20547
503,91602;16,79716;839,30958;0,20564
504,31602;16,81044;839,38474;0,20581
504,71602;16,82385;838,95866;0,20599
505,11602;16,83719;839,18422;0,20617
505,51602;16,85041;839,05887;0,20634
505,91602;16,86383;838,97747;0,20652
506,31602;16,87710;839,73575;0,20669
506,71602;16,89049;839,26888;0,20687
507,11602;16,91001;841,47165;0,20710
507,51602;16,93044;843,66817;0,20734
507,91602;16,95046;845,77380;0,20758
508,31602;16,97049;846,99588;0,20782
508,71602;16,99044;847,84189;0,20806
509,11602;17,01041;849,64680;0,20831
509,51602;17,03046;850,87819;0,20855
509,91602;17,05041;853,20007;0,20879
510,31602;17,07047;853,18750;0,20903
510,71602;17,09046;854,14322;0,20928
511,11602;17,11052;855,14281;0,20952
511,51602;17,13049;856,06398;0,20977
511,82002;17,14565;295,67908;0,23545
512,13802;17,16152;-2,26583;0,26061
512,53802;17,18155;-0,43904;0,26478
512,93802;17,20160;0,04037;0,26755
513,33802;17,22158;-0,81192;0,26987
513,73802;17,24157;-0,74612;0,27181
514,13802;17,26160;-0,58945;0,27352
514,53802;17,28152;-0,37011;0,27507
514,93802;17,30157;0,15005;0,27654
515,26002;17,31764;0,15318;0,27767