File: 02_Appendices/Appendix_C_Experimental_Data/C_1_Materials_Tests/C_1_1_Tensile_tests/C_1_1_4_Impact Smooth 3D/Specimen_RawData_5.csv
Text Inputs : Specimen label;"1"
Dimension : Length;50,00000;mm
Dimension : Final length;100,00000;mm
Test : Rate 1;4,00000;mm/min
General : Unique Identifier;"{908BCFA5-0D27-44FE-9028-AB6B56793D5A}"

Time;Extension;Load;Strain 1
(sec);(mm);(N);(mm/mm)
0,00000;0,00000;0,26413;-0,00001
0,30000;0,00843;1,29503;0,00000
0,60000;0,01940;3,51036;0,00005
0,90000;0,02980;7,92223;0,00013
1,20000;0,04003;11,58833;0,00020
1,50000;0,04994;15,26071;0,00027
1,80000;0,06000;18,30013;0,00035
2,10000;0,07003;21,35836;0,00042
2,40000;0,08000;24,95867;0,00050
2,70000;0,09003;27,89155;0,00057
3,00000;0,10000;31,22864;0,00064
3,30000;0,11003;34,56261;0,00071
3,60000;0,11997;37,13202;0,00078
3,90000;0,13313;41,12714;0,00087
4,20000;0,15362;48,77896;0,00101
4,50000;0,17427;54,29692;0,00117
4,80000;0,19444;61,02126;0,00131
5,10000;0,21447;68,04640;0,00146
5,40000;0,23447;73,02228;0,00161
5,70000;0,25447;79,41447;0,00176
6,00000;0,27447;84,83842;0,00191
6,30000;0,29442;91,11154;0,00205
6,60000;0,31447;96,03415;0,00221
6,90000;0,33450;101,84665;0,00236
7,20000;0,35450;107,26749;0,00251
7,50000;0,37447;112,66011;0,00266
7,80000;0,39447;117,08451;0,00280
8,10000;0,41447;118,73269;0,00288
8,40000;0,43444;119,34370;0,00292
8,70000;0,45447;118,06841;0,00295
9,00000;0,47444;118,66689;0,00298
9,30000;0,49444;118,47888;0,00301
9,60000;0,51447;118,63869;0,00303
9,90000;0,53450;118,35668;0,00305
10,20000;0,55450;118,07467;0,00307
10,50000;0,57447;117,30072;0,00309
10,80000;0,59447;118,10914;0,00310
11,10000;0,61447;117,80519;0,00312
11,40000;0,63447;118,00573;0,00314
11,70000;0,65447;118,14360;0,00316
12,00000;0,67442;117,99947;0,00317
12,30000;0,69444;117,75820;0,00319
12,60000;0,71447;117,83340;0,00320
12,90000;0,73450;119,06170;0,00323
13,20000;0,75453;119,37191;0,00325
13,50000;0,77447;122,34240;0,00332
13,80000;0,79444;125,39435;0,00340
14,10000;0,81442;129,70282;0,00350
14,40000;0,83450;133,81073;0,00362
14,70000;0,85447;137,54577;0,00373
15,00000;0,87441;142,78173;0,00386
15,30000;0,89444;147,67301;0,00399
15,60000;0,91444;153,25050;0,00413
15,90000;0,93450;158,23265;0,00426
16,20000;0,95450;162,14630;0,00439
16,50000;0,97450;166,64590;0,00452
16,80000;0,99447;171,61238;0,00465
17,10000;1,01441;176,16838;0,00479
17,40000;1,03447;181,15992;0,00495
17,70000;1,05444;186,95990;0,00510
18,00000;1,07441;192,06738;0,00526
18,30000;1,09444;196,70171;0,00541
18,60000;1,11447;202,70222;0,00557
18,90000;1,13453;207,13289;0,00573
19,20000;1,15447;212,37510;0,00588
19,50000;1,17444;217,83041;0,00604
19,80000;1,19444;222,10754;0,00620
20,10000;1,21447;226,89227;0,00635
20,40000;1,23447;232,59197;0,00652
20,70000;1,25447;237,43939;0,00668
21,00000;1,27444;241,40629;0,00683
21,30000;1,29439;246,55138;0,00699
21,60000;1,31447;251,85626;0,00715
21,90000;1,33453;255,63831;0,00731
22,20000;1,35450;260,89307;0,00747
22,50000;1,37447;265,79688;0,00763
22,80000;1,39447;270,55342;0,00778
23,10000;1,41450;275,28803;0,00794
23,40000;1,43444;279,35836;0,00810
23,70000;1,45447;283,54775;0,00827
24,00000;1,47444;288,20713;0,00842
24,30000;1,49444;293,70631;0,00858
24,60000;1,51447;297,01206;0,00874
24,90000;1,53447;301,23279;0,00890
25,20000;1,55447;305,72612;0,00907
25,50000;1,57444;310,42625;0,00922
25,80000;1,59447;314,39317;0,00938
26,10000;1,61450;319,17479;0,00954
26,40000;1,63447;323,76526;0,00971
26,70000;1,65441;328,39645;0,00986
27,00000;1,67439;332,12837;0,01002
27,30000;1,69447;336,30836;0,01019
27,60000;1,71450;340,77975;0,01035
27,90000;1,73450;345,19788;0,01051
28,20000;1,75453;348,07124;0,01067
28,50000;1,77444;353,24765;0,01083
28,80000;1,79447;356,92004;0,01099
29,10000;1,81444;361,51051;0,01115
29,40000;1,83447;364,70660;0,01131
29,70000;1,85444;368,83331;0,01148
30,00000;1,87439;373,46452;0,01164
30,30000;1,89450;377,43771;0,01180
30,60000;1,91447;380,79987;0,01196
30,90000;1,93450;384,61012;0,01212
31,20000;1,95450;388,32636;0,01229
31,50000;1,97450;393,28970;0,01245
31,80000;1,99450;396,69885;0,01261
32,10000;2,01444;400,75979;0,01277
32,40000;2,03441;404,41649;0,01293
32,70000;2,05439;408,61527;0,01310
33,00000;2,07444;411,75182;0,01326
33,30000;2,09447;415,55581;0,01343
33,60000;2,11453;419,36291;0,01359
33,90000;2,13450;422,02948;0,01375
34,20000;2,15444;425,89926;0,01391
34,50000;2,17447;430,17636;0,01408
34,80000;2,19447;433,26281;0,01424
35,10000;2,21450;437,29236;0,01440
35,40000;2,23447;440,30049;0,01457
35,70000;2,25444;444,26112;0,01473
36,00000;2,27444;448,92365;0,01490
36,30000;2,29438;452,19180;0,01506
36,60000;2,31450;454,37580;0,01523
36,90000;2,33453;458,31767;0,01539
37,20000;2,35450;462,68567;0,01555
37,50000;2,37450;466,00709;0,01572
37,80000;2,39447;468,83659;0,01589
38,10000;2,41441;472,31154;0,01605
38,40000;2,43444;475,87114;0,01621
38,70000;2,45450;478,55335;0,01638
39,00000;2,47444;481,27314;0,01654
39,30000;2,49441;484,77319;0,01671
39,60000;2,51447;488,36097;0,01687
39,90000;2,53447;491,66358;0,01704
40,20000;2,55453;495,20750;0,01721
40,50000;2,57447;497,84896;0,01737
40,80000;2,59447;500,80377;0,01754
41,10000;2,61447;504,06568;0,01770
41,40000;2,63444;506,93904;0,01787
41,70000;2,65447;509,31103;0,01804
42,00000;2,67444;513,25914;0,01821
42,30000;2,69447;516,57120;0,01837
42,60000;2,71447;518,91184;0,01855
42,90000;2,73447;521,76015;0,01871
43,20000;2,75450;524,42667;0,01888
43,50000;2,77447;527,06818;0,01905
43,80000;2,79447;529,94466;0,01922
44,10000;2,81444;533,44155;0,01939
44,40000;2,83450;536,22718;0,01956
44,70000;2,85444;539,35745;0,01973
45,00000;2,87438;541,34405;0,01989
45,30000;2,89441;544,20489;0,02007
45,60000;2,91447;546,25724;0,02024
45,90000;2,93453;549,71972;0,02041
46,20000;2,95450;553,30745;0,02058
46,50000;2,97450;554,19109;0,02074
46,80000;2,99447;556,66650;0,02092
47,10000;3,01444;560,19789;0,02109
47,40000;3,03450;562,62943;0,02126
47,70000;3,05444;564,84789;0,02143
48,00000;3,07444;567,76823;0,02159
48,30000;3,09444;569,97729;0,02177
48,60000;3,11447;572,75039;0,02194
48,90000;3,13453;574,87483;0,02211
49,20000;3,15447;577,40663;0,02228
49,50000;3,17447;579,97606;0,02246
49,80000;3,19447;582,36686;0,02263
50,10000;3,21447;585,20576;0,02280
50,40000;3,23447;586,58756;0,02298
50,70000;3,25447;589,54866;0,02315
51,00000;3,27441;591,09973;0,02332
51,30000;3,29441;594,78148;0,02349
51,60000;3,31450;596,28552;0,02367
51,90000;3,33450;598,07473;0,02384
52,20000;3,35450;600,07386;0,02402
52,50000;3,37444;602,66834;0,02419
52,80000;3,39447;604,51389;0,02436
53,10000;3,41450;606,69165;0,02454
53,40000;3,43444;609,48040;0,02472
53,70000;3,45447;610,78388;0,02489
54,00000;3,47444;612,85510;0,02507
54,30000;3,49444;615,41195;0,02524
54,60000;3,51447;617,11967;0,02542
54,90000;3,53450;620,23746;0,02560
55,20000;3,55450;621,84804;0,02578
55,50000;3,57444;623,41471;0,02595
55,80000;3,59447;625,00024;0,02613
56,10000;3,61447;627,38480;0,02630
56,40000;3,63447;629,44656;0,02648
56,70000;3,65441;631,63997;0,02666
57,00000;3,67441;633,08449;0,02684
57,30000;3,69450;634,47258;0,02702
57,60000;3,71447;636,40592;0,02720
57,90000;3,73450;638,06665;0,02738
58,20000;3,75447;641,15934;0,02756
58,50000;3,77444;642,08996;0,02774
58,80000;3,79447;643,25244;0,02792
59,10000;3,81444;645,83127;0,02810
59,40000;3,83450;647,21936;0,02829
59,70000;3,85444;648,90515;0,02846
60,00000;3,87441;650,94186;0,02865
60,30000;3,89447;652,47100;0,02883
60,60000;3,91447;654,36983;0,02901
60,90000;3,93450;656,91420;0,02919
61,20000;3,95450;656,95178;0,02938
61,50000;3,97450;659,03864;0,02956
61,80000;3,99447;661,14743;0,02974
62,10000;4,01444;662,05929;0,02993
62,40000;4,03444;663,51318;0,03011
62,70000;4,05444;665,38695;0,03030
63,00000;4,07447;667,16364;0,03048
63,30000;4,09444;667,89999;0,03066
63,60000;4,11450;670,00878;0,03085
63,90000;4,13450;671,70709;0,03103
64,20000;4,15447;672,60009;0,03122
64,50000;4,17450;673,80336;0,03140
64,80000;4,19447;675,16952;0,03159
65,10000;4,21447;676,27560;0,03177
65,40000;4,23447;677,63240;0,03196
65,70000;4,25444;679,45919;0,03214
66,00000;4,27447;679,88532;0,03233
66,30000;4,29441;681,73404;0,03252
66,60000;4,31447;683,20050;0,03271
66,90000;4,33450;685,18394;0,03290
67,20000;4,35450;685,79810;0,03309
67,50000;4,37450;687,14232;0,03328
67,80000;4,39447;687,93511;0,03346
68,10000;4,41447;689,31379;0,03365
68,40000;4,43444;690,22565;0,03384
68,70000;4,45447;691,90203;0,03403
69,00000;4,47444;692,98618;0,03422
69,30000;4,49444;693,96067;0,03441
69,60000;4,51447;695,14825;0,03460
69,90000;4,53450;696,54263;0,03479
70,20000;4,55452;697,70198;0,03499
70,50000;4,57447;699,12141;0,03518
70,80000;4,59447;699,80454;0,03537
71,10000;4,61447;701,04850;0,03557
71,40000;4,63444;702,71860;0,03576
71,70000;4,65447;703,24815;0,03596
72,00000;4,67444;704,55791;0,03615
72,30000;4,69450;704,99033;0,03635
72,60000;4,71447;706,80771;0,03654
72,90000;4,73450;707,10541;0,03673
73,20000;4,75452;708,41829;0,03693
73,50000;4,77447;709,27371;0,03713
73,80000;4,79447;710,03828;0,03732
74,10000;4,81444;711,55485;0,03752
74,40000;4,83450;711,55485;0,03772
74,70000;4,85444;712,70796;0,03791
75,00000;4,87438;713,81093;0,03811
75,30000;4,89444;714,89825;0,03831
75,60000;4,91447;715,63460;0,03851
75,90000;4,93452;717,32663;0,03871
76,20000;4,95450;716,95689;0,03890
76,50000;4,97450;718,97167;0,03911
76,80000;4,99447;719,00613;0,03930
77,10000;5,01444;720,63552;0,03950
77,40000;5,03450;720,99902;0,03971
77,70000;5,05444;721,39380;0,03991
78,00000;5,07444;722,67228;0,04011
78,30000;5,09444;723,72197;0,04031
78,60000;5,11447;724,73092;0,04051
78,90000;5,13452;724,90014;0,04071
79,20000;5,15447;725,99994;0,04091
79,50000;5,17450;726,22243;0,04112
79,80000;5,19447;727,54784;0,04132
80,10000;5,21447;728,40331;0,04152
80,40000;5,23444;728,63828;0,04173
80,70000;5,25447;728,87959;0,04193
81,00000;5,27444;729,81021;0,04214
81,30000;5,29441;731,05418;0,04234
81,60000;5,31447;732,23235;0,04255
81,90000;5,33450;732,16339;0,04275
82,20000;5,35450;733,35096;0,04296
82,50000;5,37444;733,02197;0,04316
82,80000;5,39447;734,44769;0,04337
83,10000;5,41452;734,98976;0,04357
83,40000;5,43447;735,48486;0,04378
83,70000;5,45450;735,90786;0,04399
84,00000;5,47444;736,81967;0,04420
84,30000;5,49441;737,44007;0,04441
84,60000;5,51447;738,39892;0,04461
84,90000;5,53452;738,96293;0,04482
85,20000;5,55452;738,93159;0,04502
85,50000;5,57444;739,09140;0,04524
85,80000;5,59447;740,03772;0,04545
86,10000;5,61447;740,88685;0,04565
86,40000;5,63444;741,97100;0,04586
86,70000;5,65447;741,35060;0,04607
87,00000;5,67444;742,09948;0,04628
87,30000;5,69449;744,07980;0,04649
87,60000;5,71447;744,41824;0,04670
87,90000;5,73447;743,74452;0,04692
88,20000;5,75447;744,36809;0,04713
88,50000;5,77447;744,56236;0,04734
88,80000;5,79449;746,40797;0,04755
89,10000;5,81447;746,41421;0,04776
89,40000;5,83447;747,04089;0,04797
89,70000;5,85444;747,35424;0,04818
90,00000;5,87441;747,85873;0,04840
90,30000;5,89447;748,35382;0,04861
90,60000;5,91447;749,07448;0,04882
90,90000;5,93449;749,87351;0,04904
91,20000;5,95447;749,73251;0,04925
91,50000;5,97449;749,19043;0,04946
91,80000;5,99449;750,98276;0,04968
92,10000;6,01447;751,14258;0,04989
92,40000;6,03447;751,63762;0,05011
92,70000;6,05441;751,84130;0,05032
92,96600;6,07219;752,65286;0,05051
93,17600;6,08609;751,85383;0,05066
93,47600;6,10609;752,99130;0,05088
93,77600;6,12609;753,31405;0,05109
94,07600;6,14603;753,44876;0,05131
94,37600;6,16606;753,68378;0,05153
94,67600;6,18600;754,88072;0,05174
94,97600;6,20606;755,07187;0,05196
95,27600;6,22606;755,79258;0,05218
95,57600;6,24609;755,16589;0,05240
95,87600;6,26612;756,25316;0,05262
96,17600;6,28603;756,58844;0,05283
96,47600;6,30606;756,72632;0,05305
96,77600;6,32606;756,55086;0,05327
97,07600;6,34603;757,55981;0,05349
97,37600;6,36609;758,09876;0,05371
97,67600;6,38603;757,93271;0,05392
97,97600;6,40609;758,31809;0,05415
98,27600;6,42606;759,72816;0,05437
98,57600;6,44609;758,89151;0,05459
98,87600;6,46612;759,10147;0,05481
99,17600;6,48606;760,44882;0,05503
99,47600;6,50609;760,95019;0,05525
99,77600;6,52603;760,60863;0,05547
100,07600;6,54609;761,01911;0,05569
100,37600;6,56606;761,34498;0,05591
100,67600;6,58600;761,33558;0,05613
100,97600;6,60606;762,21609;0,05636
101,27600;6,62603;762,00929;0,05658
101,57600;6,64609;762,05940;0,05680
101,87600;6,66609;763,09973;0,05702
102,17600;6,68609;762,14713;0,05725
102,47600;6,70609;762,33828;0,05747
102,77600;6,72603;763,89560;0,05769
103,07600;6,74609;763,89248;0,05791
103,37600;6,76606;764,10556;0,05814
103,67600;6,78600;764,73225;0,05836
103,97600;6,80606;765,33072;0,05858
104,27600;6,82606;764,82310;0,05881
104,57600;6,84612;765,40904;0,05903
104,87600;6,86609;765,31819;0,05925
105,17600;6,88606;765,86027;0,05948
105,47601;6,90609;766,43368;0,05970
105,77601;6,92609;765,80071;0,05993
106,07601;6,94606;766,06395;0,06015
106,37601;6,96606;766,06395;0,06038
106,67601;6,98603;767,03532;0,06060
106,97601;7,00600;767,50843;0,06083
107,27601;7,02609;766,00756;0,06105
107,57601;7,04612;767,38936;0,06128
107,87601;7,06609;768,34820;0,06150
108,17601;7,08603;768,26988;0,06173
108,47601;7,10606;767,79672;0,06196
108,77601;7,12609;768,06308;0,06218
109,07601;7,14606;768,49549;0,06241
109,37601;7,16606;769,03128;0,06264
109,67601;7,18600;769,11277;0,06286
109,97601;7,20603;769,80838;0,06309
110,27601;7,22609;769,47310;0,06332
110,57601;7,24609;768,79314;0,06355
110,87601;7,26612;769,33522;0,06377
111,17601;7,28606;769,36344;0,06400
111,47601;7,30609;770,28153;0,06423
111,77601;7,32609;769,74570;0,06446
112,07601;7,34603;770,21257;0,06469
112,37601;7,36606;770,48521;0,06492
112,67601;7,38600;770,90506;0,06514
112,97601;7,40609;771,70408;0,06537
113,27601;7,42609;770,38179;0,06560
113,57601;7,44609;771,62888;0,06583
113,87601;7,46606;771,74795;0,06606
114,17601;7,48603;771,93286;0,06629
114,47601;7,50612;771,77305;0,06652
114,77601;7,52606;771,74483;0,06675
115,07601;7,54609;772,58148;0,06698
115,37601;7,56603;772,44984;0,06721
115,67601;7,58597;772,72872;0,06744
115,97601;7,60609;772,78828;0,06767
116,27601;7,62606;772,86349;0,06790
116,57601;7,64612;772,77571;0,06813
116,87601;7,66609;772,36840;0,06837
117,17601;7,68609;773,23010;0,06860
117,47601;7,70612;773,30843;0,06883
117,77601;7,72606;773,47760;0,06906
118,07601;7,74606;773,96017;0,06929
118,37601;7,76603;773,72831;0,06952
118,67601;7,78603;774,34243;0,06975
118,97601;7,80606;774,50853;0,06999
119,27601;7,82609;773,98838;0,07022
119,57601;7,84609;774,75291;0,07045
119,87601;7,86606;774,28916;0,07068
120,17601;7,88609;774,22024;0,07091
120,47601;7,90612;774,43956;0,07115
120,77601;7,92606;775,30756;0,07138
121,07601;7,94606;775,07566;0,07161
121,37601;7,96603;775,34514;0,07185
121,67601;7,98603;775,71487;0,07208
121,97601;8,00606;775,08506;0,07231
122,27601;8,02609;775,30439;0,07255
122,57601;8,04609;776,00628;0,07278
122,87601;8,06609;775,35142;0,07301
123,17601;8,08606;775,82453;0,07325
123,47601;8,10609;775,47361;0,07348
123,77601;8,12609;776,19744;0,07371
124,07601;8,14603;775,82770;0,07394
124,37601;8,16606;776,23501;0,07418
124,67601;8,18600;776,15669;0,07441
124,97601;8,20606;776,52019;0,07465
125,27601;8,22606;776,80219;0,07488
125,57601;8,24609;776,32903;0,07511
125,87601;8,26612;777,10301;0,07535
126,17601;8,28606;776,86799;0,07558
126,47601;8,30609;776,17550;0,07581
126,77601;8,32606;776,73011;0,07605
127,07601;8,34603;777,71717;0,07629
127,37601;8,36609;777,62627;0,07652
127,67601;8,38600;777,41947;0,07675
127,97601;8,40609;777,30040;0,07699
128,27601;8,42606;777,85188;0,07722
128,57601;8,44609;777,68583;0,07746
128,87601;8,46612;777,36308;0,07769
129,17601;8,48606;777,27535;0,07793
129,47601;8,50609;778,15894;0,07816
129,77601;8,52606;777,42259;0,07840
130,07601;8,54609;777,94902;0,07863
130,37601;8,56606;778,24667;0,07887
130,67601;8,58600;778,96426;0,07910
130,97601;8,60606;777,85817;0,07934
131,27601;8,62603;778,33445;0,07957
131,57601;8,64609;778,54125;0,07981
131,87601;8,66609;778,06809;0,08005
132,17601;8,68609;778,42842;0,08028
132,47601;8,70609;779,25567;0,08052
132,77601;8,72603;778,93292;0,08076
133,07601;8,74609;779,08644;0,08100
133,37601;8,76606;778,76057;0,08123
133,67601;8,78600;778,90786;0,08147
133,97601;8,80603;779,16165;0,08170
134,27601;8,82609;778,96426;0,08194
134,57601;8,84612;778,83266;0,08218
134,87601;8,86609;779,40291;0,08242
135,17601;8,88606;779,18670;0,08265
135,47601;8,90609;779,43113;0,08288
135,77601;8,92606;779,41548;0,08312
136,07601;8,94606;779,99826;0,08336
136,37601;8,96606;779,40919;0,08360
136,67601;8,98603;779,42801;0,08383
136,97601;9,00603;779,58466;0,08407
137,27601;9,02609;779,92622;0,08431
137,57601;9,04609;779,38098;0,08455
137,87601;9,06609;779,90112;0,08479
138,17601;9,08606;780,30224;0,08503
138,47601;9,10606;780,34610;0,08526
138,77601;9,12609;779,65674;0,08550
139,07601;9,14606;780,27090;0,08574
139,37601;9,16606;781,41140;0,08598
139,67601;9,18600;780,38056;0,08621
139,97601;9,20606;780,20510;0,08645
140,27601;9,22609;780,43696;0,08669
140,57601;9,24609;780,61558;0,08693
140,87601;9,26612;780,78164;0,08717
141,17601;9,28603;781,04483;0,08741
141,47601;9,30609;780,85996;0,08764
141,77601;9,32609;781,00413;0,08788
142,07601;9,34606;781,04800;0,08812
142,37601;9,36606;780,80669;0,08836
142,67601;9,38597;781,70598;0,08860
142,97601;9,40609;781,55557;0,08883
143,27601;9,42609;780,76283;0,08907
143,57601;9,44609;781,18900;0,08931
143,87601;9,46611;781,48665;0,08955
144,17601;9,48606;781,84074;0,08979
144,47601;9,50611;781,80935;0,09002
144,77601;9,52606;781,28614;0,09026
145,07601;9,54606;781,56814;0,09050
145,37601;9,56606;781,91282;0,09074
145,67601;9,58597;781,50854;0,09098
145,97601;9,60609;782,08828;0,09122
146,27601;9,62609;781,40516;0,09146
146,57601;9,64611;781,51487;0,09170
146,87601;9,66606;781,09810;0,09194
147,17601;9,68606;781,36446;0,09217
147,47601;9,70611;781,91590;0,09241
147,77601;9,72606;782,05382;0,09265
148,07601;9,74606;782,59269;0,09289
148,37601;9,76606;782,41415;0,09313
148,67601;9,78600;782,61467;0,09337
148,97601;9,80606;782,11017;0,09361
149,27601;9,82609;782,07571;0,09385
149,57601;9,84611;782,55516;0,09409
149,87601;9,86606;782,50496;0,09432
150,17601;9,88606;782,94994;0,09456
150,47601;9,90609;782,72745;0,09480
150,77601;9,92606;782,35772;0,09504
151,07601;9,94606;783,12540;0,09528
151,37601;9,96606;783,47633;0,09552
151,67601;9,98603;782,73062;0,09576
151,97601;10,00606;781,97233;0,09600
152,27601;10,02606;782,70240;0,09624
152,57601;10,04609;783,23819;0,09648
152,87601;10,06609;782,14156;0,09672
153,17601;10,08609;782,37336;0,09696
153,47601;10,10611;783,15986;0,09720
153,77601;10,12609;782,57080;0,09744
154,07601;10,14603;784,39442;0,09768
154,37601;10,16606;782,96876;0,09792
154,67601;10,18603;783,93072;0,09816
154,97601;10,20606;783,32592;0,09840
155,27601;10,22606;783,10659;0,09864
155,57601;10,24609;783,29146;0,09888
155,87601;10,26611;784,15945;0,09912
156,17601;10,28606;783,41058;0,09936
156,47601;10,30609;783,19125;0,09960
156,77601;10,32608;783,48573;0,09984
157,07601;10,34603;784,27223;0,10008
157,37601;10,36608;783,05965;0,10032
157,67601;10,38600;783,98399;0,10056
157,97601;10,40609;783,56722;0,10080
158,27601;10,42606;784,26907;0,10104
158,57601;10,44608;784,13747;0,10128
158,87601;10,46611;783,62990;0,10152
159,17601;10,48606;783,62050;0,10176
159,47601;10,50608;784,47592;0,10200
159,77601;10,52606;783,77090;0,10224
160,07601;10,54608;784,13440;0,10248
160,37601;10,56606;783,91507;0,10272
160,67601;10,58600;784,58246;0,10296
160,97601;10,60606;784,09994;0,10320
161,27601;10,62606;783,28205;0,10344
161,57601;10,64608;784,65138;0,10368
161,87601;10,66608;784,18134;0,10392
162,17601;10,68608;784,13440;0,10416
162,47601;10,70608;784,25342;0,10440
162,77601;10,72603;785,01171;0,10464
163,07601;10,74608;784,60127;0,10488
163,37601;10,76606;784,73603;0,10512
163,67601;10,78600;783,97458;0,10535
163,97601;10,80606;784,16569;0,10560
164,27601;10,82608;784,51661;0,10584
164,57601;10,84611;785,01487;0,10608
164,87601;10,86608;784,19074;0,10632
165,17601;10,88606;784,14688;0,10656
165,47601;10,90608;785,23420;0,10680
165,77601;10,92608;784,98041;0,10704
166,07601;10,94606;784,86763;0,10728
166,37601;10,96606;784,64830;0,10752
166,67601;10,98603;785,41599;0,10776
166,97601;11,00606;784,92714;0,10800
167,27601;11,02608;784,60434;0,10824
167,57601;11,04611;784,53859;0,10848
167,87601;11,06608;785,49739;0,10872
168,17601;11,08603;785,17152;0,10896
168,47601;11,10608;785,05250;0,10920
168,77601;11,12608;785,71672;0,10944
169,07601;11,14606;786,11784;0,10968
169,37601;11,16606;785,25618;0,10993
169,67601;11,18600;785,07755;0,11016
169,97601;11,20603;785,66344;0,11041
170,27601;11,22608;785,71672;0,11064
170,57601;11,24608;785,86405;0,11089
170,87601;11,26611;785,36579;0,11113
171,17601;11,28606;785,58205;0,11137
171,47601;11,30608;785,89851;0,11161
171,77601;11,32608;786,43747;0,11185
172,07601;11,34605;784,94279;0,11209
172,37601;11,36606;785,15271;0,11233
172,67601;11,38600;785,55066;0,11257
172,97601;11,40608;785,88594;0,11281
173,27601;11,42608;785,51313;0,11305
173,57601;11,44608;786,14913;0,11329
173,87601;11,46608;785,93614;0,11353
174,17601;11,48603;785,61334;0,11377
174,47601;11,50611;786,52827;0,11402
174,77601;11,52606;786,92622;0,11426
175,07601;11,54608;786,68809;0,11450
175,37601;11,56605;786,25260;0,11474
175,67601;11,58597;785,70424;0,11498
175,97601;11,60608;786,24319;0,11522
176,27601;11,62606;786,98266;0,11546
176,57601;11,64611;785,93614;0,11570
176,87601;11,66608;786,81661;0,11594
177,17601;11,68608;786,23062;0,11618
177,47601;11,70611;787,26150;0,11642
177,77601;11,72605;787,18318;0,11666
178,07601;11,74606;787,11109;0,11690
178,37601;11,76605;786,51262;0,11715
178,67601;11,78603;787,23645;0,11738
178,97601;11,80605;786,71006;0,11763
179,27601;11,82608;786,30270;0,11787
179,57601;11,84608;786,42489;0,11811
179,87601;11,86605;786,33400;0,11835
180,17601;11,88608;786,67561;0,11859
180,47601;11,90608;786,53460;0,11883
180,77601;11,92608;786,77898;0,11907
181,07601;11,94603;786,93880;0,11930
181,37601;11,96603;786,97009;0,11954
181,67601;11,98603;786,44995;0,11978
181,97601;12,00605;786,74136;0,12003
182,27601;12,02608;787,57172;0,12027
182,57601;12,04608;788,12633;0,12050
182,87601;12,06608;786,71947;0,12075
183,17601;12,08605;786,47193;0,12098
183,47601;12,10608;787,07980;0,12122
183,77601;12,12608;788,24228;0,12147
184,07601;12,14605;787,27724;0,12171
184,37601;12,16605;786,90434;0,12195
184,67601;12,18603;787,19258;0,12219
184,97601;12,20605;786,81037;0,12243
185,27601;12,22605;786,85731;0,12267
185,57601;12,24608;788,18593;0,12291
185,87601;12,26614;787,62500;0,12315
186,17601;12,28605;787,62816;0,12338
186,47601;12,30608;788,36763;0,12362
186,77601;12,32608;787,86314;0,12387
187,07601;12,34603;787,57172;0,12410
187,37601;12,36605;787,92581;0,12434
187,67601;12,38600;787,59994;0,12458
187,97601;12,40608;787,31477;0,12482
188,27601;12,42608;788,16079;0,12506
188,57601;12,44608;788,28307;0,12530
188,87601;12,46611;787,78798;0,12554
189,17601;12,48605;787,92265;0,12578
189,47601;12,50608;788,20158;0,12602
189,77601;12,52605;788,41774;0,12626
190,07601;12,54611;788,23920;0,12650
190,37601;12,56605;788,22039;0,12674
190,67601;12,58600;788,05117;0,12698
190,97601;12,60605;788,57131;0,12722
191,27601;12,62605;787,73778;0,12746
191,57601;12,64608;788,47101;0,12770
191,87601;12,66608;788,30179;0,12794
192,17601;12,68608;788,46160;0,12818
192,47601;12,70608;788,73113;0,12842
192,77601;12,72605;788,28931;0,12866
193,07601;12,74608;789,52704;0,12890
193,37601;12,76605;787,75659;0,12913
193,67601;12,78600;788,78440;0,12937
193,97601;12,80605;788,48982;0,12962
194,27601;12,82608;788,94421;0,12985
194,57601;12,84611;789,37663;0,13009
194,87601;12,86608;788,94421;0,13033
195,17601;12,88605;788,93481;0,13057
195,47601;12,90608;789,57397;0,13081
195,77601;12,92608;789,17295;0,13105
196,07601;12,94608;789,14473;0,13129
196,37601;12,96605;788,45220;0,13153
196,67601;12,98603;789,31702;0,13177
196,97601;13,00605;789,05076;0,13200
197,27601;13,02608;788,76242;0,13225
197,57601;13,04611;789,09770;0,13248
197,87601;13,06608;789,15097;0,13272
198,17601;13,08603;789,97817;0,13296
198,47601;13,10605;789,64289;0,13319
198,77601;13,12611;789,63358;0,13344
199,07601;13,14605;789,60219;0,13368
199,37601;13,16605;789,98134;0,13391
199,67601;13,18600;789,71190;0,13415
199,97601;13,20603;789,04759;0,13439
200,27601;13,22608;789,94064;0,13463
200,57601;13,24608;790,03144;0,13487
200,87601;13,26611;790,19126;0,13511
201,17601;13,28605;789,76201;0,13534
201,47601;13,30608;790,15056;0,13558
201,77601;13,32608;790,60802;0,13582
202,07601;13,34605;789,93123;0,13606
202,37601;13,36605;789,61784;0,13630
202,67601;13,38600;791,04984;0,13653
202,97601;13,40608;790,25393;0,13677
203,27601;13,42608;789,92499;0,13701
203,57601;13,44608;790,00331;0,13725
203,87601;13,46608;790,70833;0,13748
204,17601;13,48605;791,29739;0,13772
204,47601;13,50611;790,10352;0,13796
204,77601;13,52605;790,35424;0,13820
205,07601;13,54611;790,86497;0,13844
205,37601;13,56605;790,96528;0,13867
205,67601;13,58597;791,04984;0,13891
205,97601;13,60608;790,14115;0,13915
206,27601;13,62608;791,01538;0,13939
206,57601;13,64611;791,13441;0,13963
206,87601;13,66608;790,94646;0,13986
207,17601;13,68608;791,97111;0,14010
207,47601;13,70611;790,85557;0,14034
207,77601;13,72605;790,89319;0,14057
208,07601;13,74605;791,11252;0,14082
208,37601;13,76605;791,21282;0,14105
208,67601;13,78602;791,81436;0,14129
208,97601;13,80605;791,80188;0,14152
209,27601;13,82608;791,82070;0,14177
209,57601;13,84608;791,31620;0,14200
209,87601;13,86608;791,76109;0,14224
210,17601;13,88608;792,08389;0,14248
210,47601;13,90611;791,34749;0,14271
210,77601;13,92605;791,91467;0,14295
211,07601;13,94605;792,55076;0,14319
211,37601;13,96605;792,56017;0,14343
211,67601;13,98605;792,66978;0,14366
211,97601;14,00605;792,31262;0,14390
212,27601;14,02608;792,51006;0,14413
212,57601;14,04608;792,50066;0,14437
212,87601;14,06608;792,47868;0,14461
213,17601;14,08605;793,19626;0,14485
213,47601;14,10608;793,38113;0,14508
213,77601;14,12608;792,39095;0,14532
214,07601;14,14602;792,50690;0,14555
214,37601;14,16605;792,38778;0,14579
214,67601;14,18602;793,04269;0,14603
214,97601;14,20605;792,99882;0,14626
215,27601;14,22608;792,20608;0,14650
215,57601;14,24608;792,78266;0,14673
215,87601;14,26614;793,54094;0,14697
216,17601;14,28605;792,87039;0,14721
216,47601;14,30608;791,97111;0,14744
216,77601;14,32605;792,90168;0,14768
217,07601;14,34605;793,94514;0,14792
217,37601;14,36608;792,85158;0,14815
217,67601;14,38599;793,07090;0,14839
217,97601;14,40608;793,95454;0,14862
218,27601;14,42608;793,46262;0,14886
218,57601;14,44608;794,71599;0,14910
218,87601;14,46611;794,08931;0,14933
219,17601;14,48605;793,36548;0,14957
219,47601;14,50608;793,24013;0,14980
219,77601;14,52605;793,12101;0,15004
220,07601;14,54611;793,61303;0,15027
220,37601;14,56605;792,98001;0,15051
220,67601;14,58600;793,98900;0,15074
220,97601;14,60605;794,12060;0,15098
221,27601;14,62605;793,79156;0,15122
221,57601;14,64608;793,88563;0,15145
221,87601;14,66608;795,07632;0,15169
222,17601;14,68608;794,54361;0,15192
222,47601;14,70611;794,35557;0,15215
222,77601;14,72602;794,39012;0,15239
223,07601;14,74608;794,70659;0,15263
223,37601;14,76605;794,60945;0,15286
223,67601;14,78602;794,23031;0,15309
223,97601;14,80605;794,63134;0,15333
224,27601;14,82605;794,34616;0,15356
224,57601;14,84611;794,52479;0,15380
224,87601;14,86608;793,68502;0,15404
225,17601;14,88605;794,67520;0,15427
225,47601;14,90608;794,45904;0,15450
225,77601;14,92608;795,09821;0,15474
226,07601;14,94608;795,31446;0,15497
226,37601;14,96608;794,84126;0,15521
226,67601;14,98602;795,62468;0,15544
226,97601;15,00602;794,97918;0,15568
227,27601;15,02611;795,17970;0,15591
227,57601;15,04611;795,21416;0,15614
227,87601;15,06608;795,97868;0,15638
228,17601;15,08602;795,81263;0,15661
228,47601;15,10605;795,31129;0,15685
228,77601;15,12611;795,34268;0,15708
229,07601;15,14605;795,46170;0,15732
229,37601;15,16605;795,33951;0,15755
229,67601;15,18599;796,17929;0,15778
229,97601;15,20605;796,36723;0,15802
230,27601;15,22611;795,77509;0,15826
230,57601;15,24608;796,72765;0,15849
230,87601;15,26614;796,44248;0,15873
231,17601;15,28605;796,07582;0,15896
231,47601;15,30608;796,06334;0,15919
231,77601;15,32608;796,11978;0,15943
232,07601;15,34608;795,98185;0,15966
232,37601;15,36602;795,95363;0,15989
232,67601;15,38599;796,64616;0,16012
232,97601;15,40608;796,32029;0,16036
233,27601;15,42608;796,26702;0,16059
233,57601;15,44608;796,18236;0,16083
233,87601;15,46611;797,18512;0,16106
234,17601;15,48605;797,13808;0,16129
234,47601;15,50611;796,75578;0,16153
234,77601;15,52605;796,44248;0,16176
235,07601;15,54611;797,02213;0,16199
235,37601;15,56605;796,75894;0,16222
235,67601;15,58596;796,72765;0,16245
235,97601;15,60608;796,79340;0,16269
236,27601;15,62608;797,16947;0,16292
236,57601;15,64611;797,82745;0,16315
236,87601;15,66608;796,94698;0,16338
237,17601;15,68608;797,25403;0,16362
237,47601;15,70611;796,85925;0,16385
237,77601;15,72608;797,64575;0,16408
238,07601;15,74605;796,96886;0,16431
238,37601;15,76605;797,46395;0,16455
238,67601;15,78602;798,46978;0,16478
238,97601;15,80608;797,76794;0,16501
239,27601;15,82608;798,12510;0,16525
239,57601;15,84608;798,34443;0,16548
239,87601;15,86605;797,73655;0,16571
240,17601;15,88605;797,23522;0,16594
240,47601;15,90611;797,31671;0,16617
240,77601;15,92608;797,81488;0,16640
241,07601;15,94605;797,94340;0,16664
241,37601;15,96605;798,67663;0,16686
241,67601;15,98602;798,50117;0,16710
241,97601;16,00605;798,41651;0,16733
242,27601;16,02608;798,49483;0,16756
242,57601;16,04608;798,78317;0,16779
242,87601;16,06608;798,22540;0,16802
243,17601;16,08605;798,29432;0,16826
243,47601;16,10611;798,66406;0,16849
243,77601;16,12608;798,80822;0,16872
244,07601;16,14605;798,51681;0,16895
244,37601;16,16605;798,47295;0,16918
244,67601;16,18602;798,83328;0,16941
244,97601;16,20608;799,11212;0,16965
245,27601;16,22608;799,96446;0,16987
245,57601;16,24608;799,96753;0,17011
245,87601;16,26614;799,13093;0,17034
246,17601;16,28605;799,45056;0,17057
246,47601;16,30608;798,86774;0,17080
246,77601;16,32605;798,98685;0,17103
247,07601;16,34602;800,08348;0,17126
247,37601;16,36608;799,70127;0,17149
247,67601;16,38602;799,50700;0,17172
247,97601;16,40608;799,40986;0,17195
248,27601;16,42608;800,26211;0,17219
248,57601;16,44608;800,49084;0,17242
248,87601;16,46610;799,76702;0,17265
249,17601;16,48605;800,11487;0,17288
249,47601;16,50608;799,98635;0,17311
249,77601;16,52608;800,16498;0,17334
250,07601;16,54611;800,85434;0,17357
250,37601;16,56605;800,23082;0,17380
250,67601;16,58599;800,79790;0,17403
250,97601;16,60605;800,31222;0,17426
251,27601;16,62605;801,22408;0,17449
251,57601;16,64611;800,13052;0,17472
251,87601;16,66608;800,73839;0,17495
252,17601;16,68608;800,57550;0,17518
252,47601;16,70608;800,81988;0,17541
252,77601;16,72602;800,41876;0,17564
253,07601;16,74611;801,41835;0,17587
253,37601;16,76605;800,97970;0,17610
253,67601;16,78602;801,02040;0,17633
253,97601;16,80605;801,88205;0,17656
254,27601;16,82608;801,80373;0,17679
254,57601;16,84611;801,14258;0,17702
254,87601;16,86608;801,07683;0,17724
255,17601;16,88605;801,78492;0,17747
255,47601;16,90608;801,25229;0,17770
255,77601;16,92608;801,68154;0,17793
256,07601;16,94605;800,67888;0,17815
256,37601;16,96608;800,92950;0,17839
256,67601;16,98602;801,58133;0,17861
256,97601;17,00605;801,71917;0,17884
257,27601;17,02608;801,99800;0,17907
257,57601;17,04608;801,28992;0,17929
257,87601;17,06611;801,43092;0,17953
258,17601;17,08605;802,13277;0,17975
258,47601;17,10608;801,72857;0,17998
258,77601;17,12611;801,71917;0,18021
259,07601;17,14605;802,23614;0,18044
259,37601;17,16605;802,46804;0,18067
259,67601;17,18599;802,41477;0,18089
259,97601;17,20605;802,36150;0,18112
260,27601;17,22611;802,26129;0,18135
260,57601;17,24611;802,69054;0,18158
260,87601;17,26611;802,30823;0,18181
261,17601;17,28605;802,26436;0,18204
261,47601;17,30608;803,24197;0,18226
261,77601;17,32608;802,53072;0,18249
262,07601;17,34608;802,87857;0,18272
262,37601;17,36602;802,65608;0,18294
262,67601;17,38599;802,46804;0,18317
262,97601;17,40610;803,32346;0,18340
263,27601;17,42608;802,95689;0,18363
263,57601;17,44608;803,27019;0,18385
263,87601;17,46611;803,11354;0,18408
264,17601;17,48602;803,57725;0,18431
264,47601;17,50610;802,56201;0,18454
264,77601;17,52608;803,47704;0,18477
265,07601;17,54610;803,69636;0,18499
265,37601;17,56605;803,12919;0,18522
265,67601;17,58596;803,52090;0,18545
265,97601;17,60608;803,93450;0,18567
266,27601;17,62608;804,17888;0,18590
266,57601;17,64610;803,69953;0,18613
266,87601;17,66607;803,47387;0,18635
267,17601;17,68608;804,33870;0,18658
267,47601;17,70611;803,96580;0,18681
267,77601;17,72608;804,66773;0,18703
268,07601;17,74605;804,51109;0,18726
268,37601;17,76605;804,63635;0,18749
268,67601;17,78602;804,45465;0,18771
268,97601;17,80605;805,34136;0,18794
269,27601;17,82611;804,61754;0,18817
269,57601;17,84608;804,84319;0,18839
269,87601;17,86605;804,68021;0,18862
270,17601;17,88608;805,08450;0,18885
270,47601;17,90610;804,26661;0,18908
270,77601;17,92608;804,76794;0,18930
271,07601;17,94605;805,07509;0,18953
271,37601;17,96605;804,88706;0,18975
271,67601;17,98605;804,63635;0,18998
271,97601;18,00605;805,81764;0,19020
272,27601;18,02608;805,65158;0,19043
272,57601;18,04610;805,10015;0,19065
272,87601;18,06608;804,97479;0,19088
273,17601;18,08605;805,07817;0,19110
273,47601;18,10607;805,55137;0,19133
273,77601;18,12608;805,05628;0,19155
274,07601;18,14605;805,54504;0,19178
274,37601;18,16605;805,38839;0,19200
274,67601;18,18602;806,54463;0,19222
274,97601;18,20607;805,20352;0,19245
275,27601;18,22605;805,77377;0,19268
275,57601;18,24607;805,98062;0,19290
275,87601;18,26613;805,80199;0,19313
276,17601;18,28605;805,37274;0,19335
276,47601;18,30610;806,15925;0,19357
276,77601;18,32608;806,43184;0,19380
277,07601;18,34602;805,90546;0,19402
277,37601;18,36608;805,37898;0,19424
277,67601;18,38602;806,37857;0,19447
277,97601;18,40608;806,67939;0,19469
278,27601;18,42608;806,08092;0,19492
278,57601;18,44608;805,82397;0,19514
278,87601;18,46610;806,41927;0,19536
279,17601;18,48605;806,55087;0,19559
279,47601;18,50608;806,55720;0,19581
279,77601;18,52607;806,93634;0,19603
280,07601;18,54610;806,59166;0,19626
280,37601;18,56605;806,62295;0,19648
280,67601;18,58599;807,52857;0,19670
280,97601;18,60605;807,72592;0,19693
281,27601;18,62605;807,51283;0,19715
281,57601;18,64610;807,00526;0,19737
281,87601;18,66610;807,56927;0,19759
282,17601;18,68607;807,30291;0,19782
282,47601;18,70608;807,71344;0,19804
282,77601;18,72605;808,15209;0,19826
283,07601;18,74610;807,74156;0,19848
283,37601;18,76608;807,66324;0,19871
283,67601;18,78602;808,47172;0,19893
283,97601;18,80605;807,62571;0,19915
284,27601;18,82607;807,60997;0,19937
284,57601;18,84610;807,61937;0,19960
284,87601;18,86608;808,13644;0,19982
285,17601;18,88605;807,76671;0,20004
285,47601;18,90608;807,44084;0,20026
285,77601;18,92607;808,51559;0,20048
286,07601;18,94608;808,55945;0,20070
286,37601;18,96607;807,99544;0,20092
286,67601;18,98602;808,68164;0,20114
286,97601;19,00605;808,19596;0,20137
287,27601;19,02610;808,03931;0,20158
287,57601;19,04610;808,05495;0,20181
287,87601;19,06610;808,49677;0,20203
288,17601;19,08605;807,85127;0,20225
288,47601;19,10605;808,35260;0,20247
288,77601;19,12607;808,60956;0,20268
289,07601;19,14605;808,65659;0,20291
289,37601;19,16608;809,01375;0,20313
289,67601;19,18602;809,38041;0,20334
289,97601;19,20605;808,60015;0,20356
290,27601;19,22607;808,07377;0,20378
290,57601;19,24610;808,84453;0,20400
290,87601;19,26613;808,81324;0,20422
291,17601;19,28605;808,52807;0,20444
291,47601;19,30608;809,03573;0,20465
291,77601;19,32607;809,32714;0,20487
292,07601;19,34605;808,86651;0,20509
292,37601;19,36605;809,47438;0,20531
292,67601;19,38599;809,61222;0,20553
292,97601;19,40610;808,90413;0,20575
293,27601;19,42607;809,68123;0,20597
293,57601;19,44608;809,62162;0,20618
293,87601;19,46610;809,43052;0,20640
294,17601;19,48605;809,65925;0,20662
294,47601;19,50610;810,02275;0,20683
294,77601;19,52607;809,84728;0,20705
295,07601;19,54610;809,27070;0,20727
295,37601;19,56605;809,49320;0,20748
295,67601;19,58596;809,67182;0,20770
295,97601;19,60607;809,72193;0,20792
296,27601;19,62607;809,52449;0,20813
296,57601;19,64610;809,40863;0,20835
296,87601;19,66607;809,60291;0,20856
297,17601;19,68607;809,59350;0,20878
297,47601;19,70610;810,12305;0,20899
297,77601;19,72604;810,25772;0,20921
298,07601;19,74605;810,15434;0,20942
298,37601;19,76605;810,09483;0,20963
298,67601;19,78602;810,56170;0,20985
298,97601;19,80605;809,66866;0,21006
299,27601;19,82607;809,45557;0,21027
299,57601;19,84610;809,54330;0,21048
299,87601;19,86605;809,59657;0,21068
300,17601;19,88608;809,50260;0,21089
300,47601;19,90610;809,47122;0,21108
300,77601;19,92607;809,60598;0,21127
301,07601;19,94605;809,53389;0,21145
301,37601;19,96605;809,54330;0,21162
301,67601;19,98604;808,49994;0,21180
301,97601;20,00605;808,92919;0,21199
302,27601;20,02608;808,30250;0,21218
302,57601;20,04607;808,43410;0,21237
302,84201;20,06382;516,63700;0,20877
302,97801;20,07285;15,35785;0,19504
303,27801;20,09288;13,66267;0,18730
303,57801;20,11291;13,55612;0,18266
303,87801;20,13291;13,42138;0,17925
304,17801;20,15285;14,04494;0,17643
304,47801;20,17288;13,49032;0,17399
304,77801;20,19285;13,39632;0,17184
305,07801;20,21285;14,29562;0,16989
305,37801;20,23285;14,54315;0,16811
305,67801;20,25283;14,21415;0,16646
305,77601;20,25944;14,30188;0,16595