File: 02_Appendices/Appendix_C_Experimental_Data/C_1_Materials_Tests/C_1_1_Tensile_tests/C_1_1_4_Impact Smooth 3D/Specimen_RawData_3.csv
Text Inputs : Specimen label;"1"
Dimension : Length;50,00000;mm
Dimension : Final length;100,00000;mm
Test : Rate 1;4,00000;mm/min
General : Unique Identifier;"{F30A581E-71DC-4F5A-A49C-0ACACFBA28FE}"

Time;Extension;Load;Strain 1
(sec);(mm);(N);(mm/mm)
0,00000;0,00003;0,07583;-0,00001
0,20000;0,00510;-0,43178;0,00000
0,40000;0,01219;0,58032;0,00000
0,60000;0,01943;3,78580;0,00005
0,80000;0,02641;5,67840;0,00010
1,00000;0,03325;8,49535;0,00015
1,20000;0,04003;10,61354;0,00019
1,40000;0,04670;13,50256;0,00024
1,60000;0,05328;15,96543;0,00028
1,80000;0,06000;18,27790;0,00032
2,00000;0,06672;21,27972;0,00036
2,20000;0,07330;22,96864;0,00040
2,40000;0,08000;25,16831;0,00045
2,60000;0,08667;28,06672;0,00049
2,80000;0,09333;30,26639;0,00054
3,00000;0,10000;31,85817;0,00058
3,20000;0,10670;33,90117;0,00062
3,40000;0,11336;37,28840;0,00067
3,60000;0,11997;38,46029;0,00071
3,80000;0,12667;40,50329;0,00076
4,00000;0,13336;42,54002;0,00080
4,20000;0,13994;44,85875;0,00084
4,40000;0,14664;46,75135;0,00089
4,60000;0,15333;49,65916;0,00094
4,80000;0,15997;51,23841;0,00098
5,00000;0,16667;53,16233;0,00103
5,20000;0,17336;55,64714;0,00107
5,40000;0,18000;57,62120;0,00112
5,60000;0,18664;59,43858;0,00117
5,80000;0,19336;61,48471;0,00121
6,00000;0,20003;62,96681;0,00126
6,20000;0,20664;65,79630;0,00131
6,40000;0,21513;68,00223;0,00136
6,60000;0,22832;72,85591;0,00145
6,80000;0,24225;77,68451;0,00154
7,00000;0,25598;81,98671;0,00164
7,20000;0,26954;86,60224;0,00173
7,40000;0,28291;90,81044;0,00183
7,60000;0,29621;94,69902;0,00192
7,80000;0,30963;98,49987;0,00201
8,00000;0,32291;102,44171;0,00209
8,20000;0,33630;105,84148;0,00218
8,40000;0,34960;109,65486;0,00227
8,60000;0,36291;113,89125;0,00236
8,80000;0,37627;113,94452;0,00240
9,00000;0,38954;114,89082;0,00242
9,20000;0,40299;114,20146;0,00244
9,40000;0,41627;114,49287;0,00246
9,60000;0,42957;113,96332;0,00247
9,80000;0,44293;113,85991;0,00249
10,00000;0,45630;114,76547;0,00250
10,20000;0,46963;113,18623;0,00251
10,40000;0,48291;114,02912;0,00252
10,60000;0,49624;113,30843;0,00253
10,80000;0,50963;113,25517;0,00254
11,00000;0,52291;113,29904;0,00254
11,20000;0,53630;112,85408;0,00255
11,40000;0,54966;113,08909;0,00256
11,60000;0,56293;113,31470;0,00258
11,80000;0,57627;112,43108;0,00259
12,00000;0,58954;113,33977;0,00259
12,20000;0,60296;112,62221;0,00260
12,40000;0,61627;113,70638;0,00261
12,60000;0,62954;112,51254;0,00262
12,80000;0,64296;114,01972;0,00264
13,00000;0,65627;114,15445;0,00266
13,20000;0,66963;114,71534;0,00267
13,40000;0,68291;113,90692;0,00268
13,60000;0,69627;117,41009;0,00272
13,80000;0,70963;117,99290;0,00276
14,00000;0,72288;120,10797;0,00280
14,20000;0,73630;122,38597;0,00285
14,40000;0,74966;124,13128;0,00290
14,60000;0,76291;126,48449;0,00295
14,80000;0,77627;128,91602;0,00301
15,00000;0,78957;131,90844;0,00308
15,20000;0,80296;134,56559;0,00314
15,40000;0,81624;137,92462;0,00320
15,60000;0,82957;141,75681;0,00328
15,80000;0,84299;144,86830;0,00336
16,00000;0,85627;148,42787;0,00344
16,20000;0,86960;151,58323;0,00353
16,40000;0,88290;156,46197;0,00361
16,60000;0,89624;158,77758;0,00370
16,80000;0,90960;163,15184;0,00379
17,00000;0,92290;166,63934;0,00387
17,20000;0,93632;169,64430;0,00395
17,40000;0,94963;172,58031;0,00403
17,60000;0,96290;174,93665;0,00411
17,80000;0,97630;178,69989;0,00420
18,00000;0,98957;183,14623;0,00430
18,20000;1,00293;186,59299;0,00440
18,40000;1,01624;191,22106;0,00449
18,60000;1,02960;194,14455;0,00459
18,80000;1,04299;197,87019;0,00469
19,00000;1,05627;202,03765;0,00479
19,20000;1,06963;205,98262;0,00489
19,40000;1,08290;209,00324;0,00498
19,60000;1,09624;212,81349;0,00508
19,80000;1,10960;216,05659;0,00517
20,00000;1,12293;220,51232;0,00527
20,20000;1,13632;223,67081;0,00537
20,40000;1,14960;227,06117;0,00547
20,60000;1,16290;231,43543;0,00557
20,80000;1,17627;235,11094;0,00567
21,00000;1,18957;238,74885;0,00576
21,20000;1,20293;241,00805;0,00586
21,40000;1,21627;245,23505;0,00596
21,60000;1,22957;249,29284;0,00606
21,80000;1,24296;252,47326;0,00616
22,00000;1,25627;255,57221;0,00626
22,20000;1,26966;259,18505;0,00636
22,40000;1,28290;262,34041;0,00646
22,60000;1,29621;266,32613;0,00656
22,80000;1,30963;269,13995;0,00665
23,00000;1,32293;273,47975;0,00675
23,20000;1,33632;275,86429;0,00685
23,40000;1,34960;279,43952;0,00695
23,60000;1,36290;282,85182;0,00705
23,80000;1,37627;286,18264;0,00715
24,00000;1,38954;288,84292;0,00724
24,20000;1,40299;292,96651;0,00735
24,40000;1,41629;296,42582;0,00745
24,60000;1,42957;299,42452;0,00755
24,80000;1,44293;302,39813;0,00764
25,00000;1,45627;306,40266;0,00774
25,20000;1,46963;308,88119;0,00784
25,40000;1,48288;312,51910;0,00794
25,60000;1,49624;315,63686;0,00804
25,80000;1,50963;319,08050;0,00814
26,00000;1,52290;322,32357;0,00824
26,20000;1,53629;325,39433;0,00834
26,40000;1,54966;328,96332;0,00844
26,60000;1,56290;331,73326;0,00854
26,80000;1,57624;334,38101;0,00864
27,00000;1,58954;338,02204;0,00874
27,20000;1,60299;341,12413;0,00883
27,40000;1,61627;343,82516;0,00894
27,60000;1,62957;346,78937;0,00903
27,80000;1,64296;350,16721;0,00913
28,00000;1,65627;353,13768;0,00923
28,20000;1,66960;355,53477;0,00933
28,40000;1,68290;359,09747;0,00943
28,60000;1,69627;362,23088;0,00953
28,80000;1,70966;364,77838;0,00963
29,00000;1,72290;368,85496;0,00972
29,20000;1,73629;371,59671;0,00982
29,40000;1,74960;373,88722;0,00992
29,60000;1,76290;377,57528;0,01002
29,80000;1,77627;379,52114;0,01012
30,00000;1,78957;383,89852;0,01022
30,20000;1,80296;385,46838;0,01032
30,40000;1,81624;387,85918;0,01042
30,60000;1,82957;391,59106;0,01052
30,80000;1,84296;394,14167;0,01061
31,00000;1,85624;397,56023;0,01071
31,20000;1,86957;399,81944;0,01081
31,40000;1,88290;402,57685;0,01091
31,60000;1,89627;406,29939;0,01101
31,80000;1,90963;408,10737;0,01110
32,00000;1,92290;412,10875;0,01120
32,20000;1,93629;413,41227;0,01130
32,40000;1,94960;416,82455;0,01140
32,60000;1,96290;419,48794;0,01150
32,80000;1,97632;422,01979;0,01160
33,00000;1,98960;425,33493;0,01170
33,20000;2,00296;427,23068;0,01180
33,40000;2,01624;429,79382;0,01189
33,60000;2,02957;433,51944;0,01199
33,80000;2,04293;435,29295;0,01209
34,00000;2,05624;439,13457;0,01219
34,20000;2,06963;441,45328;0,01229
34,40000;2,08293;444,01642;0,01239
34,60000;2,09624;446,75819;0,01249
34,80000;2,10963;449,28682;0,01259
35,00000;2,12293;452,61141;0,01269
35,20000;2,13629;454,82046;0,01279
35,40000;2,14957;457,17368;0,01289
35,60000;2,16290;460,43242;0,01300
35,80000;2,17629;462,37828;0,01310
36,00000;2,18957;466,17603;0,01319
36,20000;2,20296;467,89940;0,01330
36,40000;2,21627;470,52833;0,01339
36,60000;2,22957;472,89096;0,01350
36,80000;2,24293;475,44469;0,01360
37,00000;2,25627;478,01095;0,01370
37,20000;2,26966;480,76212;0,01380
37,40000;2,28290;482,96805;0,01390
37,60000;2,29624;485,65967;0,01400
37,80000;2,30963;487,43319;0,01410
38,00000;2,32290;490,95829;0,01420
38,20000;2,33629;493,17987;0,01430
38,40000;2,34960;495,53309;0,01440
38,60000;2,36293;497,82046;0,01450
38,80000;2,37627;500,43687;0,01460
39,00000;2,38957;502,77440;0,01470
39,20000;2,40299;504,99290;0,01480
39,40000;2,41627;507,10170;0,01490
39,60000;2,42957;510,28212;0,01500
39,80000;2,44293;512,14648;0,01510
40,00000;2,45629;514,82869;0,01520
40,20000;2,46963;516,97511;0,01530
40,40000;2,48290;519,10584;0,01540
40,60000;2,49624;521,40262;0,01550
40,80000;2,50960;523,62424;0,01561
41,00000;2,52290;526,28140;0,01571
41,20000;2,53629;528,50298;0,01581
41,40000;2,54966;530,60865;0,01591
41,60000;2,56293;533,31279;0,01601
41,80000;2,57624;534,90456;0,01611
42,00000;2,58954;537,45830;0,01621
42,20000;2,60296;539,57650;0,01631
42,40000;2,61624;541,96105;0,01641
42,60000;2,62954;544,57118;0,01652
42,80000;2,64296;546,55150;0,01662
43,00000;2,65629;548,78253;0,01672
43,20000;2,66963;550,50589;0,01682
43,40000;2,68293;552,10395;0,01692
43,60000;2,69624;555,18411;0,01702
43,80000;2,70963;557,25216;0,01712
44,00000;2,72287;559,80901;0,01723
44,20000;2,73629;560,85871;0,01733
44,40000;2,74963;563,64434;0,01743
44,60000;2,76293;565,32072;0,01753
44,80000;2,77626;567,54234;0,01763
45,00000;2,78957;569,88611;0,01773
45,20000;2,80296;572,06699;0,01784
45,40000;2,81624;573,62430;0,01794
45,60000;2,82957;575,92113;0,01804
45,80000;2,84296;577,18074;0,01814
46,00000;2,85624;580,61811;0,01824
46,20000;2,86960;582,08457;0,01834
46,40000;2,88290;584,52548;0,01844
46,60000;2,89624;585,98253;0,01855
46,80000;2,90963;587,32675;0,01865
47,00000;2,92290;589,66433;0,01876
47,20000;2,93632;591,46602;0,01886
47,40000;2,94963;593,70957;0,01896
47,60000;2,96290;596,21315;0,01906
47,80000;2,97632;597,57936;0,01916
48,00000;2,98957;599,99521;0,01927
48,20000;3,00296;600,96658;0,01937
48,40000;3,01624;603,35114;0,01947
48,60000;3,02960;605,35022;0,01958
48,80000;3,04299;607,00467;0,01968
49,00000;3,05626;608,74061;0,01978
49,20000;3,06963;611,16586;0,01989
49,40000;3,08290;612,81719;0,01999
49,60000;3,09621;614,63458;0,02009
49,80000;3,10963;616,53345;0,02019
50,00000;3,12296;618,50436;0,02030
50,20000;3,13635;619,95513;0,02040
50,40000;3,14963;621,71300;0,02051
50,60000;3,16290;623,43325;0,02061
50,80000;3,17624;625,72062;0,02071
51,00000;3,18957;626,88943;0,02081
51,20000;3,20293;628,88539;0,02092
51,40000;3,21629;630,11996;0,02102
51,60000;3,22957;632,67685;0,02113
51,80000;3,24299;633,85814;0,02123
52,00000;3,25629;635,98263;0,02134
52,20000;3,26965;637,16392;0,02144
52,40000;3,28290;639,58606;0,02154
52,60000;3,29621;641,10574;0,02165
52,80000;3,30963;642,91689;0,02175
53,00000;3,32290;643,97599;0,02186
53,20000;3,33629;645,96571;0,02197
53,40000;3,34963;647,27860;0,02207
53,60000;3,36293;649,29342;0,02218
53,80000;3,37626;650,13943;0,02228
54,00000;3,38954;652,37982;0,02238
54,20000;3,40299;653,72721;0,02249
54,40000;3,41629;656,56295;0,02260
54,60000;3,42957;657,39644;0,02270
54,80000;3,44293;659,26081;0,02281
55,00000;3,45626;660,75549;0,02292
55,20000;3,46963;662,24700;0,02302
55,40000;3,48290;664,07691;0,02312
55,60000;3,49624;665,52768;0,02323
55,80000;3,50963;666,98473;0,02334
56,00000;3,52290;668,98069;0,02344
56,20000;3,53629;670,42522;0,02355
56,40000;3,54965;672,55283;0,02366
56,60000;3,56290;673,38319;0,02376
56,80000;3,57624;674,17282;0,02387
57,00000;3,58954;675,73953;0,02397
57,20000;3,60299;677,67599;0,02408
57,40000;3,61626;678,99516;0,02419
57,60000;3,62957;680,07302;0,02429
57,80000;3,64299;680,77492;0,02440
58,00000;3,65624;683,77363;0,02451
58,20000;3,66960;684,45043;0,02462
58,40000;3,68290;686,54357;0,02472
58,60000;3,69629;687,06684;0,02483
58,80000;3,70965;688,58969;0,02494
59,00000;3,72290;690,30053;0,02505
59,20000;3,73629;691,83907;0,02515
59,40000;3,74963;693,55615;0,02526
59,60000;3,76290;694,78136;0,02537
59,80000;3,77623;695,22941;0,02548
60,00000;3,78957;697,72364;0,02559
60,20000;3,80296;698,36597;0,02569
60,40000;3,81626;700,09250;0,02580
60,60000;3,82960;701,82215;0,02591
60,80000;3,84299;702,24828;0,02602
61,00000;3,85623;702,78100;0,02613
61,20000;3,86957;704,41663;0,02624
61,40000;3,88290;707,25549;0,02635
61,60000;3,89623;707,76311;0,02645
61,80000;3,90963;708,55273;0,02656
62,00000;3,92290;710,85896;0,02667
62,20000;3,93629;710,63018;0,02678
62,40000;3,94960;712,93325;0,02689
62,60000;3,96290;713,60385;0,02700
62,80000;3,97632;715,58729;0,02711
63,00000;3,98960;715,96014;0,02722
63,20000;4,00296;717,30753;0,02733
63,40000;4,01626;719,55421;0,02744
63,60000;4,02957;720,23729;0,02755
63,80000;4,04296;720,79189;0,02766
64,00000;4,05623;721,47497;0,02777
64,20000;4,06962;722,70017;0,02788
64,40000;4,08290;724,50815;0,02799
64,60000;4,09623;725,06904;0,02810
64,80000;4,10962;726,73601;0,02822
65,00000;4,12293;726,80493;0,02832
65,20000;4,13629;728,76960;0,02844
65,40000;4,14957;729,70651;0,02855
65,60000;4,16290;730,76244;0,02866
65,80000;4,17629;731,12906;0,02877
66,00000;4,18957;732,85559;0,02888
66,20000;4,20296;733,36633;0,02899
66,40000;4,21629;734,65104;0,02910
66,60000;4,22957;735,98591;0,02921
66,80000;4,24296;737,11080;0,02933
67,00000;4,25626;737,23611;0,02944
67,20000;4,26965;738,87175;0,02955
67,40000;4,28293;739,34807;0,02966
67,60000;4,29623;741,05263;0,02977
67,80000;4,30962;741,71065;0,02988
68,00000;4,32290;742,83243;0,03000
68,20000;4,33629;743,88213;0,03011
68,40000;4,34960;745,47390;0,03022
68,60000;4,36290;745,80605;0,03033
68,80000;4,37626;746,84946;0,03045
69,00000;4,38957;747,48867;0,03056
69,20000;4,40301;748,22819;0,03067
69,40000;4,41626;749,99230;0,03079
69,60000;4,42957;750,81326;0,03090
69,80000;4,44293;751,07645;0,03101
70,00000;4,45626;752,52410;0,03113
70,20000;4,46962;752,78729;0,03124
70,40000;4,48290;754,83657;0,03135
70,60000;4,49623;755,13110;0,03146
70,80000;4,50962;756,09623;0,03158
71,00000;4,52290;756,70723;0,03169
71,20000;4,53626;757,68800;0,03181
71,40000;4,54965;758,66249;0,03192
71,60000;4,56293;759,16070;0,03204
71,80000;4,57626;760,03182;0,03215
72,00000;4,58957;761,31024;0,03227
72,20000;4,60299;761,75206;0,03238
72,40000;4,61626;762,67328;0,03250
72,60000;4,62954;763,23729;0,03261
72,80000;4,64296;764,45933;0,03273
73,00000;4,65626;765,59675;0,03284
73,20000;4,66962;765,54348;0,03296
73,40000;4,68290;766,66214;0,03307
73,60000;4,69626;767,57395;0,03319
73,80000;4,70962;768,57978;0,03330
74,00000;4,72287;769,66081;0,03342
74,20000;4,73629;770,02114;0,03353
74,40000;4,74962;771,29644;0,03365
74,60000;4,76293;771,83228;0,03376
74,80000;4,77626;772,57175;0,03388
75,00000;4,78957;772,56551;0,03399
75,20000;4,80296;773,68412;0,03411
75,40000;4,81626;773,59010;0,03423
75,60000;4,82960;774,75263;0,03435
75,80000;4,84299;775,44511;0,03446
76,00000;4,85626;776,43213;0,03458
76,20000;4,86960;776,55748;0,03470
76,40000;4,88290;777,34082;0,03481
76,60000;4,89623;778,02078;0,03493
76,80000;4,90960;779,14256;0,03505
77,00000;4,92290;780,13898;0,03516
77,20000;4,93632;780,67165;0,03529
77,40000;4,94962;780,98499;0,03540
77,60000;4,96290;782,50160;0,03552
77,80000;4,97632;782,63003;0,03564
78,00000;4,98957;783,24731;0,03575
78,20000;5,00293;783,52932;0,03587
78,40000;5,01623;784,60723;0,03599
78,60000;5,02960;784,54139;0,03611
78,80000;5,04299;785,11173;0,03622
79,00000;5,05623;785,94517;0,03634
79,20000;5,06962;786,95416;0,03646
79,40000;5,08290;787,46490;0,03658
79,60000;5,09623;788,40805;0,03670
79,80000;5,10962;788,74966;0,03682
80,00000;5,12296;789,47656;0,03694
80,20000;5,13632;790,00611;0,03706
80,40000;5,14960;789,98106;0,03718
80,60000;5,16290;790,77696;0,03729
80,80000;5,17626;791,40048;0,03741
81,00000;5,18957;791,88934;0,03753
81,20000;5,20296;793,08627;0,03765
81,40000;5,21626;793,18024;0,03777
81,60000;5,22960;794,22994;0,03789
81,80000;5,24296;793,77564;0,03801
82,00000;5,25629;794,42738;0,03813
82,20000;5,26962;794,37410;0,03825
82,40000;5,28290;795,93454;0,03837
82,60000;5,29620;796,02543;0,03849
82,80000;5,30962;796,74302;0,03862
83,00000;5,32293;797,08453;0,03873
83,20000;5,33629;797,62666;0,03886
83,40000;5,34959;798,07471;0,03898
83,60000;5,36290;799,70090;0,03910
83,80000;5,37623;798,93954;0,03922
84,00000;5,38954;799,96418;0,03934
84,20000;5,40299;799,87328;0,03946
84,40000;5,41629;801,40242;0,03958
84,60000;5,42957;801,56848;0,03970
84,80000;5,44299;801,54026;0,03982
85,00000;5,45629;801,55283;0,03995
85,20000;5,46962;803,07880;0,04007
85,40000;5,48290;802,38311;0,04019
85,60000;5,49623;803,90284;0,04031
85,80000;5,50965;804,06265;0,04043
86,00000;5,52290;804,78648;0,04055
86,20000;5,53629;804,54517;0,04068
86,40000;5,54965;805,55417;0,04080
86,60000;5,56290;806,24036;0,04092
86,80000;5,57623;806,76368;0,04104
87,00000;5,58954;805,92390;0,04116
87,20000;5,60299;806,61951;0,04129
87,40000;5,61629;807,67237;0,04141
87,60000;5,62957;808,04527;0,04153
87,80000;5,64298;807,46869;0,04165
88,00000;5,65623;808,53403;0,04178
88,20000;5,66959;808,23014;0,04190
88,40000;5,68290;809,81255;0,04202
88,60000;5,69626;809,74670;0,04214
88,80000;5,70965;810,31071;0,04227
89,00000;5,72290;810,16971;0,04239
89,20000;5,73632;810,50815;0,04252
89,40000;5,74959;810,89353;0,04264
89,60000;5,76290;811,86807;0,04276
89,80000;5,77626;811,99966;0,04288
90,00000;5,78957;812,15631;0,04301
90,20000;5,80298;812,46654;0,04313
90,40000;5,81623;813,34384;0,04326
90,60000;5,82959;813,50682;0,04338
90,80000;5,84298;814,20559;0,04350
91,00000;5,85626;813,71674;0,04363
91,20000;5,86957;814,85417;0,04375
91,40000;5,88290;814,02697;0,04387
91,60000;5,89623;815,13617;0,04400
91,80000;5,90962;815,29915;0,04412
92,00000;5,92290;815,41510;0,04425
92,20000;5,93632;815,96654;0,04437
92,40000;5,94962;816,54936;0,04450
92,60000;5,96290;816,61204;0,04462
92,80000;5,97632;817,66173;0,04475
93,00000;5,98959;817,10396;0,04487
93,20000;6,00296;817,09456;0,04500
93,40000;6,01623;817,36092;0,04512
93,60000;6,02957;818,35110;0,04525
93,80000;6,04296;818,94640;0,04538
94,00000;6,05623;818,70202;0,04550
94,20000;6,06962;818,80232;0,04562
94,40000;6,08293;819,74547;0,04575
94,60000;6,09623;819,46654;0,04588
94,80000;6,10962;820,26878;0,04600
95,00000;6,12293;819,74547;0,04613
95,20000;6,13629;821,00192;0,04625
95,40000;6,14957;820,46613;0,04638
95,60000;6,16290;821,14302;0,04650
95,80000;6,17626;821,63801;0,04663
96,00000;6,18957;821,74772;0,04676
96,20000;6,20298;822,00784;0,04689
96,40000;6,21629;822,20836;0,04701
96,60000;6,22957;822,37441;0,04714
96,80000;6,24296;823,24548;0,04727
97,00000;6,25629;822,75039;0,04739
97,20000;6,26965;822,74415;0,04752
97,40000;6,28290;823,23924;0,04765
97,60000;6,29620;823,82830;0,04777
97,80000;6,30962;824,15110;0,04790
98,00000;6,32290;824,16357;0,04803
98,20000;6,33629;824,65550;0,04816
98,40000;6,34959;824,39547;0,04828
98,60000;6,36293;825,95591;0,04841
98,80000;6,37629;826,03116;0,04854
99,00000;6,38957;824,88116;0,04866
99,20000;6,40298;825,82114;0,04879
99,40000;6,41626;825,77104;0,04892
99,60000;6,42957;826,96490;0,04904
99,80000;6,44293;826,66408;0,04917
100,00000;6,45629;826,76429;0,04930
100,20000;6,46962;826,46357;0,04943
100,40000;6,48293;826,64210;0,04956
100,60000;6,49623;827,25631;0,04968
100,80000;6,50962;827,77953;0,04981
101,00000;6,52290;827,66367;0,04994
101,20000;6,53629;828,39057;0,05007
101,40000;6,54968;828,49395;0,05020
101,60000;6,56293;828,66317;0,05033
101,80000;6,57626;828,15243;0,05045
102,00000;6,58957;829,24599;0,05058
102,15200;6,59976;829,27104;0,05068
102,26400;6,60717;828,93576;0,05075
102,46400;6,62042;829,08617;0,05088
102,66400;6,63370;828,75090;0,05101
102,86400;6,64711;829,31183;0,05114
103,06400;6,66042;829,71919;0,05127
103,26400;6,67370;830,56204;0,05140
103,46400;6,68709;830,48055;0,05152
103,66400;6,70042;829,28361;0,05165
103,86400;6,71375;830,84721;0,05178
104,06400;6,72703;830,28628;0,05191
104,26400;6,74039;830,98505;0,05204
104,46400;6,75378;831,06030;0,05217
104,66400;6,76706;830,59650;0,05230
104,86400;6,78039;831,74333;0,05243
105,06400;6,79372;831,14803;0,05255
105,26400;6,80703;831,29527;0,05268
105,46401;6,82039;831,89690;0,05281
105,66401;6,83375;831,18873;0,05294
105,86401;6,84711;831,74966;0,05307
106,06401;6,86039;832,52043;0,05320
106,26401;6,87367;832,41705;0,05333
106,46401;6,88709;832,24783;0,05346
106,66401;6,90039;832,47339;0,05359
106,86401;6,91372;832,60816;0,05371
107,06401;6,92709;832,39507;0,05384
107,26401;6,94039;832,53924;0,05397
107,46401;6,95375;833,43228;0,05410
107,66401;6,96709;832,63014;0,05423
107,86401;6,98042;833,13147;0,05436
108,06401;6,99372;833,49496;0,05449
108,26401;7,00700;833,67042;0,05462
108,46401;7,02042;833,75815;0,05475
108,66401;7,03375;833,90856;0,05488
108,86401;7,04709;834,19057;0,05501
109,06401;7,06039;834,04016;0,05514
109,26401;7,07372;834,10908;0,05527
109,46401;7,08703;834,34721;0,05540
109,66401;7,10036;834,46316;0,05553
109,86401;7,11375;834,65120;0,05566
110,06401;7,12711;834,51960;0,05579
110,26401;7,14039;834,82666;0,05592
110,46401;7,15375;834,81409;0,05605
110,66401;7,16706;834,69814;0,05618
110,86401;7,18039;835,01153;0,05631
111,06401;7,19375;835,54732;0,05644
111,26401;7,20703;835,72594;0,05657
111,46401;7,22042;835,42513;0,05670
111,66401;7,23372;835,83873;0,05683
111,86401;7,24709;835,74783;0,05696
112,06401;7,26045;835,93903;0,05709
112,26401;7,27367;835,39067;0,05722
112,46401;7,28706;835,26848;0,05735
112,66401;7,30039;836,23352;0,05748
112,86401;7,31378;835,67267;0,05762
113,06401;7,32709;836,23985;0,05775
113,26401;7,34039;836,61899;0,05788
113,46401;7,35378;836,15212;0,05801
113,66401;7,36703;836,51869;0,05814
113,86401;7,38039;836,59394;0,05827
114,06401;7,39372;836,57820;0,05840
114,26401;7,40711;836,39026;0,05853
114,46401;7,42045;837,46184;0,05866
114,66401;7,43372;837,09210;0,05879
114,86401;7,44709;836,95427;0,05893
115,06401;7,46039;837,15478;0,05906
115,26401;7,47370;836,87901;0,05919
115,46401;7,48703;836,98556;0,05932
115,66401;7,50042;836,78188;0,05945
115,86401;7,51375;838,00703;0,05958
116,06401;7,52706;838,11674;0,05971
116,26401;7,54039;837,17043;0,05985
116,46401;7,55378;837,11408;0,05998
116,66401;7,56706;837,77523;0,06011
116,86401;7,58036;838,09793;0,06024
117,06401;7,59372;837,99139;0,06037
117,26401;7,60709;838,24834;0,06050
117,46401;7,62042;838,19507;0,06064
117,66401;7,63375;838,02585;0,06077
117,86401;7,64711;838,03842;0,06090
118,06401;7,66039;838,57421;0,06103
118,26401;7,67367;838,32666;0,06116
118,46401;7,68709;838,27032;0,06129
118,66401;7,70042;839,07871;0,06143
118,86401;7,71375;838,99098;0,06156
119,06401;7,72709;838,64946;0,06169
119,26401;7,74039;839,09752;0,06182
119,46401;7,75375;838,64313;0,06196
119,66401;7,76706;838,38617;0,06209
119,86401;7,78039;838,74660;0,06222
120,06401;7,79375;838,87819;0,06235
120,26401;7,80706;838,47083;0,06249
120,46401;7,82042;839,02227;0,06262
120,66401;7,83375;839,12574;0,06275
120,86401;7,84708;838,84057;0,06288
121,06401;7,86039;839,46725;0,06301
121,26401;7,87367;839,64895;0,06315
121,46401;7,88706;839,16327;0,06328
121,66401;7,90039;838,91265;0,06342
121,86401;7,91375;839,43903;0,06355
122,06401;7,92708;840,09394;0,06368
122,26401;7,94036;840,10335;0,06381
122,46401;7,95375;839,93729;0,06394
122,66401;7,96706;839,70856;0,06408
122,86401;7,98045;840,16910;0,06421
123,06401;7,99375;840,14405;0,06434
123,26401;8,00703;840,16910;0,06447
123,46401;8,02042;839,63014;0,06461
123,66401;8,03372;839,46409;0,06474
123,86401;8,04708;840,58270;0,06487
124,06401;8,06039;840,25376;0,06501
124,26401;8,07369;838,98781;0,06514
124,46401;8,08706;840,17226;0,06527
124,66401;8,10039;839,11633;0,06540
124,86401;8,11375;840,16602;0,06554
125,06401;8,12708;840,49813;0,06567
125,26401;8,14039;840,32584;0,06581
125,46401;8,15372;840,05315;0,06594
125,66401;8,16706;840,55457;0,06607
125,86401;8,18042;840,73944;0,06620
126,06401;8,19372;841,15928;0,06634
126,26401;8,20706;840,29762;0,06647
126,46401;8,22042;840,48249;0,06661
126,66401;8,23372;840,23494;0,06674
126,86401;8,24708;841,83924;0,06687
127,06401;8,26045;840,40724;0,06701
127,26401;8,27369;840,57646;0,06714
127,46401;8,28706;840,34456;0,06727
127,66401;8,30036;840,83965;0,06741
127,86401;8,31378;840,69241;0,06754
128,06401;8,32708;841,16869;0,06767
128,26401;8,34036;840,87411;0,06781
128,46401;8,35378;840,81152;0,06794
128,66401;8,36708;840,59527;0,06807
128,86401;8,38039;841,39118;0,06821
129,06401;8,39372;840,44170;0,06834
129,26401;8,40708;841,18433;0,06848
129,46401;8,42042;841,18433;0,06861
129,66401;8,43369;840,66419;0,06874
129,86401;8,44708;840,89609;0,06888
130,06401;8,46042;840,94619;0,06901
130,26401;8,47369;841,28780;0,06915
130,46401;8,48706;841,06531;0,06928
130,66401;8,50039;841,62615;0,06941
130,86401;8,51372;841,27840;0,06955
131,06401;8,52706;841,20631;0,06968
131,26401;8,54039;840,61408;0,06982
131,46401;8,55381;841,22196;0,06995
131,66401;8,56706;841,34731;0,07009
131,86401;8,58036;841,36613;0,07022
132,06401;8,59372;841,42564;0,07035
132,26401;8,60703;841,14680;0,07049
132,46401;8,62039;840,94312;0,07062
132,66401;8,63369;840,80519;0,07076
132,86401;8,64711;842,14006;0,07089
133,06401;8,66042;841,93638;0,07103
133,26401;8,67369;841,16869;0,07116
133,46401;8,68708;840,63914;0,07130
133,66401;8,70042;841,75775;0,07143
133,86401;8,71375;841,79221;0,07156
134,06401;8,72703;841,04333;0,07170
134,26401;8,74042;842,01470;0,07184
134,46401;8,75378;841,45693;0,07197
134,66401;8,76706;841,93014;0,07211
134,86401;8,78039;841,69824;0,07224
135,06401;8,79372;841,56664;0,07237
135,26401;8,80703;841,04650;0,07251
135,46401;8,82039;840,79271;0,07264
135,66401;8,83375;841,89875;0,07278
135,86401;8,84711;842,14630;0,07291
136,06401;8,86039;841,52278;0,07305
136,26401;8,87369;841,48515;0,07318
136,46401;8,88706;840,93371;0,07331
136,66401;8,90039;842,01470;0,07345
136,86401;8,91375;842,74476;0,07358
137,06401;8,92708;841,76091;0,07372
137,26401;8,94039;842,23403;0,07385
137,46401;8,95375;841,76091;0,07399
137,66401;8,96708;841,61051;0,07412
137,86401;8,98042;841,94262;0,07425
138,06401;8,99372;842,59445;0,07439
138,26401;9,00703;841,42247;0,07452
138,46401;9,02042;841,66061;0,07466
138,66401;9,03375;842,30611;0,07479
138,86401;9,04711;842,49415;0,07493
139,06401;9,06042;842,61950;0,07506
139,26401;9,07369;841,96460;0,07520
139,46401;9,08703;841,83607;0,07533
139,66401;9,10039;841,99281;0,07546
139,86401;9,11378;841,94895;0,07560
140,06401;9,12711;841,77349;0,07573
140,26401;9,14039;842,76358;0,07587
140,46401;9,15375;842,25917;0,07600
140,66401;9,16705;841,75467;0,07613
140,86401;9,18039;841,87370;0,07627
141,06401;9,19372;842,29363;0,07640
141,26401;9,20703;841,57605;0,07654
141,46401;9,22042;841,87370;0,07667
141,66401;9,23375;841,92697;0,07680
141,86401;9,24711;842,26225;0,07694
142,06401;9,26044;841,94262;0,07707
142,26401;9,27369;841,67002;0,07721
142,46401;9,28705;842,04609;0,07734
142,66401;9,30036;842,40017;0,07747
142,86401;9,31378;841,94578;0,07761
143,06401;9,32708;842,08054;0,07774
143,26401;9,34036;842,42830;0,07787
143,46401;9,35375;841,44752;0,07801
143,66401;9,36705;843,39026;0,07815
143,86401;9,38039;841,70448;0,07828
144,06401;9,39372;842,57871;0,07841
144,26401;9,40708;842,20273;0,07854
144,46401;9,42042;842,54425;0,07868
144,66401;9,43369;842,21521;0,07881
144,86401;9,44708;842,73545;0,07895
145,06401;9,46042;842,30611;0,07908
145,26401;9,47369;842,23719;0,07921
145,46401;9,48705;842,37820;0,07935
145,66401;9,50042;842,56623;0,07948
145,86401;9,51375;842,48474;0,07962
146,06401;9,52708;843,02686;0,07975
146,26401;9,54039;842,17452;0,07989
146,46401;9,55378;842,43463;0,08002
146,66401;9,56705;843,77257;0,08016
146,86401;9,58036;842,32492;0,08029
147,06401;9,59375;842,99864;0,08043
147,26401;9,60708;842,12748;0,08056
147,46401;9,62042;842,48474;0,08070
147,66401;9,63372;842,23095;0,08083
147,86401;9,64711;841,95519;0,08097
148,06401;9,66039;842,32492;0,08110
148,26401;9,67369;842,21838;0,08124
148,46401;9,68711;842,95161;0,08137
148,66401;9,70042;842,14322;0,08150
148,86401;9,71375;842,79180;0,08164
149,06401;9,72705;842,39384;0,08177
149,26401;9,74039;841,85805;0,08191
149,46401;9,75378;842,49731;0,08204
149,66401;9,76703;842,36879;0,08218
149,86401;9,78039;842,39384;0,08231
150,06401;9,79375;843,12707;0,08245
150,26401;9,80705;842,23095;0,08258
150,46401;9,82042;842,46909;0,08272
150,66401;9,83378;842,30611;0,08285
150,86401;9,84708;842,60069;0,08299
151,06401;9,86039;842,45335;0,08312
151,26401;9,87366;843,08321;0,08326
151,46401;9,88708;842,48157;0,08339
151,66401;9,90042;843,01746;0,08353
151,86401;9,91375;842,58188;0,08366
152,06401;9,92708;843,06439;0,08380
152,26401;9,94036;842,45335;0,08394
152,46401;9,95375;842,65079;0,08407
152,66401;9,96705;842,14630;0,08421
152,86401;9,98042;842,13065;0,08434
153,06401;9,99375;843,11143;0,08448
153,26401;10,00703;842,12441;0,08461
153,46401;10,02042;842,58812;0,08475
153,66401;10,03372;841,74527;0,08488
153,86401;10,04708;843,16786;0,08502
154,06401;10,06039;842,27482;0,08515
154,26401;10,07372;842,22779;0,08529
154,46401;10,08705;842,00529;0,08542
154,66401;10,10039;842,51296;0,08556
154,86401;10,11378;842,74169;0,08569
155,06401;10,12708;843,06132;0,08583
155,26401;10,14039;842,88577;0,08597
155,46401;10,15375;842,22155;0,08610
155,66401;10,16705;842,91091;0,08624
155,86401;10,18042;842,57564;0,08637
156,06401;10,19372;842,42830;0,08651
156,26401;10,20705;842,76991;0,08664
156,46401;10,22042;843,00805;0,08678
156,66401;10,23372;842,42830;0,08691
156,86401;10,24708;842,57247;0,08705
157,06401;10,26044;843,05191;0,08719
157,26401;10,27372;843,09578;0,08732
157,46401;10,28705;842,84507;0,08746
157,66401;10,30039;843,19292;0,08759
157,86401;10,31378;842,73228;0,08773
158,06401;10,32708;843,05499;0,08787
158,26401;10,34036;842,97359;0,08801
158,46401;10,35378;842,23095;0,08814
158,66401;10,36708;842,69149;0,08827
158,86401;10,38039;842,06490;0,08841
159,06401;10,39375;842,75110;0,08855
159,26401;10,40708;843,55948;0,08868
159,46401;10,42042;842,82942;0,08882
159,66401;10,43369;843,14588;0,08895
159,86401;10,44708;842,74169;0,08909
160,06401;10,46044;842,87329;0,08922
160,26401;10,47372;843,17718;0,08936
160,46401;10,48705;842,59752;0,08950
160,66401;10,50042;842,11808;0,08963
160,86401;10,51375;842,11808;0,08977
161,06401;10,52705;842,62257;0,08990
161,26401;10,54039;843,02993;0,09004
161,46401;10,55381;842,41582;0,09018
161,66401;10,56705;841,98648;0,09031
161,86401;10,58039;842,67585;0,09045
162,06401;10,59375;842,58188;0,09058
162,26401;10,60702;842,56623;0,09072
162,46401;10,62039;842,24977;0,09085
162,66401;10,63369;843,25867;0,09099
162,86401;10,64711;842,60693;0,09113
163,06401;10,66042;842,88269;0,09126
163,26401;10,67369;842,85131;0,09140
163,46401;10,68711;842,39701;0,09153
163,66401;10,70042;842,56930;0,09167
163,86401;10,71375;842,54425;0,09181
164,06401;10,72705;843,32451;0,09194
164,26401;10,74039;843,54067;0,09208
164,46401;10,75378;843,44354;0,09221
164,66401;10,76705;842,02727;0,09235
164,86401;10,78039;842,73852;0,09248
165,06401;10,79372;842,73228;0,09262
165,26401;10,80702;842,49731;0,09275
165,46401;10,82039;842,24977;0,09289
165,66401;10,83378;842,57871;0,09303
165,86401;10,84711;841,75775;0,09316
166,06401;10,86042;842,78239;0,09330
166,26401;10,87366;843,97625;0,09343
166,46401;10,88705;841,83607;0,09357
166,66401;10,90039;842,97042;0,09370
166,86401;10,91375;842,50662;0,09384
167,06401;10,92708;843,15212;0,09398
167,26401;10,94039;843,51562;0,09412
167,46401;10,95378;843,13331;0,09425
167,66401;10,96708;842,75417;0,09438
167,86401;10,98042;842,20590;0,09452
168,06401;10,99372;842,30611;0,09466
168,26401;11,00700;843,34332;0,09479
168,46401;11,02041;843,20540;0,09493
168,66401;11,03375;842,23719;0,09507
168,86401;11,04711;842,04292;0,09520
169,06401;11,06042;842,53177;0,09533
169,26401;11,07372;843,66919;0,09547
169,46401;11,08705;843,20540;0,09561
169,66401;11,10039;843,03617;0,09574
169,86401;11,11375;842,28730;0,09588
170,06401;11,12711;842,75110;0,09601
170,26401;11,14039;843,34016;0,09615
170,46401;11,15375;842,59445;0,09629
170,66401;11,16705;843,03934;0,09642
170,86401;11,18039;842,87953;0,09656
171,06401;11,19372;843,01746;0,09669
171,26401;11,20702;843,01746;0,09683
171,46401;11,22041;842,46593;0,09696
171,66401;11,23372;842,12124;0,09710
171,86401;11,24711;843,41848;0,09724
172,06401;11,26044;843,38402;0,09737
172,26401;11,27369;843,33392;0,09751
172,46401;11,28705;842,74476;0,09764
172,66401;11,30036;842,95785;0,09778
172,86401;11,31378;842,27165;0,09791
173,06401;11,32708;842,52544;0,09805
173,26401;11,34039;843,20856;0,09819
173,46401;11,35378;842,68218;0,09833
173,66401;11,36705;842,51296;0,09846
173,86401;11,38039;842,60693;0,09860
174,06401;11,39372;843,16786;0,09873
174,26401;11,40708;842,90458;0,09887
174,46401;11,42044;842,87645;0,09901
174,66401;11,43372;843,20232;0,09914
174,86401;11,44708;842,34374;0,09929
175,06401;11,46041;843,18351;0,09942
175,26401;11,47369;843,03617;0,09956
175,46401;11,48702;842,61950;0,09969
175,66401;11,50041;842,57564;0,09983
175,86401;11,51375;842,13382;0,09997
176,06401;11,52708;842,57871;0,10010
176,26401;11,54041;842,82318;0,10024
176,46401;11,55378;842,11500;0,10038
176,66401;11,56705;842,47217;0,10051
176,86401;11,58036;842,32492;0,10065
177,06401;11,59372;843,08321;0,10078
177,26401;11,60708;843,11767;0,10092
177,46401;11,62041;842,76050;0,10105
177,66401;11,63375;843,15529;0,10119
177,86401;11,64711;842,76358;0,10133
178,06401;11,66041;842,90775;0,10147
178,26401;11,67366;842,85764;0,10160
178,46401;11,68711;843,17718;0,10174
178,66401;11,70041;842,75417;0,10187
178,86401;11,71375;843,04251;0,10201
179,06401;11,72705;842,72604;0,10214
179,26401;11,74039;842,24343;0,10228
179,46401;11,75375;842,61009;0,10242
179,66401;11,76705;842,53801;0,10255
179,86401;11,78038;843,02686;0,10268
180,06401;11,79375;843,39026;0,10282
180,26401;11,80705;843,39026;0,10296
180,46401;11,82041;842,57871;0,10309
180,66401;11,83375;843,54067;0,10323
180,86401;11,84708;843,15846;0,10336
181,06401;11,86038;843,05191;0,10350
181,26401;11,87366;842,63515;0,10363
181,46401;11,88708;843,26500;0,10377
181,66401;11,90041;843,35580;0,10391
181,86401;11,91375;842,36255;0,10404
182,06401;11,92708;842,67585;0,10418
182,26401;11,94036;843,51879;0,10431
182,46401;11,95378;842,92339;0,10445
182,66401;11,96705;843,11459;0,10458
182,86401;11,98044;842,45028;0,10472
183,06401;11,99375;843,57206;0,10485
183,26401;12,00702;842,48791;0,10499
183,46401;12,02041;842,56306;0,10512
183,66401;12,03372;843,33699;0,10526
183,86401;12,04708;842,68218;0,10540
184,06401;12,06039;843,33392;0,10553
184,26401;12,07372;843,38086;0,10567
184,46401;12,08708;842,46276;0,10580
184,66401;12,10039;843,23362;0,10593
184,86401;12,11378;842,14322;0,10607
185,06401;12,12708;842,86705;0,10621
185,26401;12,14038;842,60069;0,10634
185,46401;12,15372;842,91399;0,10648
185,66401;12,16705;843,41224;0,10661
185,86401;12,18041;842,99548;0,10675
186,06401;12,19375;843,61900;0,10688
186,26401;12,20708;843,47799;0,10702
186,46401;12,22044;842,60069;0,10716
186,66401;12,23372;842,80120;0,10729
186,86401;12,24708;843,02053;0,10743
187,06401;12,26044;842,86388;0,10756
187,26401;12,27372;842,34690;0,10770
187,46401;12,28705;843,03310;0,10783
187,66401;12,30038;843,44670;0,10796
187,86401;12,31375;842,79804;0,10809
188,06401;12,32708;843,35273;0,10822
188,26401;12,34036;843,64722;0,10835
188,46401;12,35377;842,62574;0,10848
188,66401;12,36705;843,47492;0,10860
188,86401;12,38038;842,97042;0,10869
189,06401;12,39375;843,16153;0,10866
189,26401;12,40708;842,43771;0,10879
189,46401;12,42041;843,11143;0,10891
189,66401;12,43372;843,47799;0,10904
189,86401;12,44708;843,44046;0,10916
190,06401;12,46041;842,86705;0,10927
190,26401;12,47372;842,89517;0,10939
190,46401;12,48705;842,80437;0,10950
190,66401;12,50041;843,41224;0,10962
190,86401;12,51375;843,38086;0,10974
191,06401;12,52705;843,05191;0,10987
191,26401;12,54038;843,02053;0,10999
191,46401;12,55377;843,53127;0,11012
191,66401;12,56705;843,36214;0,11024
191,86401;12,58036;843,05815;0,11037
192,06401;12,59375;843,00488;0,11050
192,26401;12,60705;843,56572;0,11063
192,46401;12,62041;843,02370;0,11076
192,66401;12,63369;843,42789;0,11089
192,86401;12,64711;842,95478;0,11102
193,06401;12,66041;843,60335;0,11115
193,26401;12,67369;843,06132;0,11128
193,46401;12,68708;843,10519;0,11141
193,66401;12,70038;843,29629;0,11154
193,86401;12,71375;843,60959;0,11167
194,06401;12,72705;842,62257;0,11180
194,26401;12,74041;843,13648;0,11193
194,46401;12,75378;842,94844;0,11206
194,66401;12,76705;844,23944;0,11219
194,86401;12,78038;842,99548;0,11231
195,06401;12,79375;843,65346;0,11244
195,26401;12,80702;843,19599;0,11258
195,46401;12,82038;843,39343;0,11270
195,66401;12,83378;843,27748;0,11283
195,86401;12,84711;843,50314;0,11296
196,06401;12,86038;843,71306;0,11309
196,26401;12,87366;843,81960;0,11322
196,46401;12,88708;843,21797;0,11335
196,66401;12,90038;843,81020;0,11347
196,86401;12,91375;842,79496;0,11360
197,06401;12,92708;844,17993;0,11373
197,26401;12,94041;843,82584;0,11385
197,46401;12,95377;843,41848;0,11398
197,66401;12,96705;843,11143;0,11411
197,86401;12,98041;843,91041;0,11424
198,06401;12,99375;843,31511;0,11437
198,26401;13,00699;843,52819;0,11450
198,46401;13,02041;843,12391;0,11462
198,66401;13,03374;843,56889;0,11476
198,86401;13,04711;842,60069;0,11489
199,06401;13,06041;843,70365;0,11501
199,26401;13,07372;842,83259;0,11513
199,46401;13,08705;843,72247;0,11526
199,66401;13,10036;844,44312;0,11539
199,86401;13,11375;844,03576;0,11552
200,06401;13,12708;843,38402;0,11565
200,26401;13,14038;843,52186;0,11578
200,46401;13,15375;843,47799;0,11591
200,66401;13,16705;844,00130;0,11603
200,86401;13,18038;843,08637;0,11616
201,06401;13,19375;843,70673;0,11629
201,26401;13,20702;843,77881;0,11642
201,46401;13,22044;843,41224;0,11655
201,66401;13,23372;843,23678;0,11667
201,86401;13,24711;843,89159;0,11680
202,06401;13,26044;843,67543;0,11693
202,26401;13,27369;843,97942;0,11705
202,46401;13,28705;842,87329;0,11718
202,66401;13,30036;844,02328;0,11731
202,86401;13,31377;842,61633;0,11744
203,06401;13,32708;843,50621;0,11757
203,26401;13,34038;843,26807;0,11770
203,46401;13,35377;843,78822;0,11783
203,66401;13,36705;844,65928;0,11796
203,86401;13,38038;843,84773;0,11809
204,06401;13,39372;844,30212;0,11822
204,26401;13,40708;843,66919;0,11836
204,46401;13,42044;843,64414;0,11849
204,66401;13,43372;844,24568;0,11862
204,86401;13,44711;843,61592;0,11875
205,06401;13,46041;844,48699;0,11889
205,26401;13,47369;843,84149;0,11902
205,46401;13,48702;843,66286;0,11915
205,66401;13,50038;844,04517;0,11928
205,86401;13,51375;843,92922;0,11942
206,06401;13,52708;844,12983;0,11955
206,26401;13,54038;843,73187;0,11969
206,46401;13,55377;843,28065;0,11982
206,66401;13,56705;843,96368;0,11996
206,86401;13,58035;843,38402;0,12009
207,06401;13,59372;844,06398;0,12022
207,26401;13,60705;843,57206;0,12035
207,46401;13,62041;843,64722;0,12049
207,66401;13,63372;843,97001;0,12062
207,86401;13,64711;843,81960;0,12076
208,06401;13,66038;844,99149;0,12089
208,26401;13,67366;843,89159;0,12103
208,46401;13,68711;843,57830;0,12116
208,66401;13,70044;844,13607;0,12130
208,86401;13,71374;843,57830;0,12143
209,06401;13,72705;843,83208;0,12157
209,26401;13,74038;843,93239;0,12170
209,46401;13,75374;844,37421;0,12183
209,66401;13,76705;844,17677;0,12197
209,86401;13,78038;843,94179;0,12210
210,06401;13,79374;844,30529;0,12224
210,26401;13,80705;844,82227;0,12237
210,46401;13,82041;844,03576;0,12251
210,66401;13,83377;844,55907;0,12264
210,86401;13,84708;844,13914;0,12278
211,06401;13,86038;844,18934;0,12291
211,26401;13,87369;844,23004;0,12305
211,46401;13,88708;844,23004;0,12318
211,66401;13,90041;844,02328;0,12331
211,86401;13,91374;844,63423;0,12345
212,06401;13,92708;844,56224;0,12358
212,26401;13,94038;844,50580;0,12372
212,46401;13,95377;844,19874;0,12385
212,66401;13,96705;843,92615;0,12399
212,86401;13,98041;844,10161;0,12412
213,06401;13,99374;844,04200;0,12426
213,26401;14,00702;844,31777;0,12439
213,46401;14,02041;844,53085;0,12453
213,66401;14,03372;844,69067;0,12466
213,86401;14,04711;845,03852;0,12479
214,06401;14,06038;844,43688;0,12493
214,26401;14,07372;843,88852;0,12507
214,46401;14,08705;844,49640;0,12520
214,66401;14,10041;844,53085;0,12534
214,86401;14,11377;844,32093;0,12547
215,06401;14,12708;844,42114;0,12561
215,26401;14,14038;844,65928;0,12574
215,46401;14,15374;844,67810;0,12588
215,66401;14,16708;844,55907;0,12601
215,86401;14,18041;844,83167;0,12615
216,06401;14,19372;844,81286;0,12628
216,26401;14,20705;844,24885;0,12642
216,46401;14,22041;844,34282;0,12655
216,66401;14,23372;844,18301;0,12669
216,86401;14,24708;844,95069;0,12682
217,06401;14,26044;844,90376;0,12696
217,26401;14,27372;844,46194;0,12709
217,46401;14,28705;844,45877;0,12723
217,66401;14,30038;844,77216;0,12736
217,86401;14,31374;844,23944;0,12750
218,06401;14,32708;844,61235;0,12763
218,26401;14,34035;844,50264;0,12777
218,46401;14,35377;845,16378;0,12790
218,66401;14,36708;844,30212;0,12804
218,86401;14,38041;843,92922;0,12817
219,06401;14,39374;844,66245;0,12831
219,26401;14,40708;844,32717;0,12844
219,46401;14,42041;844,90683;0,12858
219,66401;14,43369;844,72196;0,12871
219,86401;14,44708;844,50264;0,12885
220,06401;14,46041;844,87554;0,12898
220,26401;14,47372;845,36122;0,12912
220,46401;14,48708;844,92257;0,12925
220,66401;14,50041;844,24261;0,12939
220,86401;14,51374;844,90376;0,12952
221,06401;14,52705;845,43014;0,12966
221,26401;14,54038;844,65304;0,12980
221,46401;14,55377;844,47758;0,12993
221,66401;14,56705;844,93198;0,13007
221,86401;14,58038;845,34865;0,13020
222,06401;14,59374;845,05416;0,13034
222,26401;14,60705;844,95069;0,13047
222,46401;14,62041;844,34599;0,13061
222,66401;14,63372;845,19517;0,13074
222,86401;14,64711;845,17319;0,13088
223,06401;14,66041;845,50222;0,13101
223,26401;14,67369;844,49323;0,13115
223,46401;14,68711;844,75959;0,13128
223,66401;14,70041;844,74394;0,13142
223,86401;14,71374;844,25202;0,13155
224,06401;14,72705;844,88811;0,13169
224,26401;14,74041;845,28914;0,13182
224,46401;14,75377;844,84732;0,13196
224,66401;14,76705;845,07605;0,13209
224,86401;14,78038;845,64639;0,13223
225,06401;14,79372;845,12308;0,13236
225,26401;14,80702;845,04476;0,13250
225,46401;14,82038;845,12308;0,13263
225,66401;14,83374;844,61542;0,13277
225,86401;14,84711;844,96010;0,13291
226,06401;14,86041;845,58679;0,13304
226,26401;14,87369;845,01337;0,13317
226,46401;14,88708;844,92564;0,13331
226,66401;14,90041;845,19517;0,13345
226,86401;14,91374;844,85356;0,13358
227,06401;14,92708;845,64947;0,13372
227,26401;14,94038;845,35498;0,13385
227,46401;14,95377;845,75918;0,13398
227,66401;14,96708;845,28290;0,13412
227,86401;14,98044;845,00089;0,13426
228,06401;14,99374;846,29497;0,13439
228,26401;15,00702;845,25468;0,13453
228,46401;15,02041;845,10110;0,13466
228,66401;15,03374;845,75294;0,13479
228,86401;15,04708;845,98167;0,13493
229,06401;15,06041;846,33883;0,13506
229,26401;15,07372;845,89701;0,13520
229,46401;15,08705;845,42390;0,13534
229,66401;15,10038;845,14190;0,13547
229,86401;15,11374;845,87513;0,13561
230,06401;15,12711;845,81245;0,13574
230,26401;15,14038;845,06357;0,13588
230,46401;15,15374;845,67452;0,13601
230,66401;15,16705;845,53352;0,13614
230,86401;15,18038;845,98474;0,13628
231,06401;15,19374;846,53627;0,13642
231,26401;15,20705;846,34200;0,13655
231,46401;15,22044;845,85315;0,13669
231,66401;15,23372;845,43331;0,13682
231,86401;15,24711;846,05999;0,13696
232,06401;15,26044;845,94721;0,13709
232,26401;15,27369;846,06307;0,13722
232,46401;15,28705;845,65887;0,13736
232,66401;15,30035;846,04435;0,13749
232,86401;15,31377;846,26367;0,13763
233,06401;15,32708;847,16920;0,13776
233,26401;15,34038;845,64639;0,13790
233,46401;15,35377;845,90018;0,13803
233,66401;15,36708;845,55866;0,13817
233,86401;15,38038;847,12850;0,13830
234,06401;15,39371;846,16020;0,13844
234,26401;15,40708;846,89977;0,13857
234,46401;15,42044;845,90642;0,13870
234,66401;15,43372;846,37329;0,13884
234,86401;15,44710;846,27615;0,13897
235,06401;15,46041;847,06265;0,13911
235,26401;15,47369;846,35140;0,13924
235,46401;15,48705;846,22921;0,13937
235,66401;15,50041;846,25427;0,13951
235,86401;15,51374;846,54251;0,13964
236,06401;15,52708;846,26991;0,13978
236,26401;15,54038;846,15713;0,13991
236,46401;15,55377;846,51429;0,14005
236,66401;15,56705;845,99415;0,14018
236,86401;15,58035;846,27308;0,14031
237,06401;15,59374;847,38228;0,14044
237,26401;15,60708;845,76234;0,14058
237,46401;15,62041;846,27615;0,14071
237,66401;15,63374;846,14148;0,14085
237,86401;15,64708;846,05683;0,14098
238,06401;15,66038;847,23504;0,14112
238,26401;15,67369;845,97850;0,14125
238,46401;15,68710;846,62400;0,14138
238,66401;15,70044;846,47359;0,14152
238,86401;15,71377;846,89977;0,14165
239,06401;15,72708;846,86214;0,14178
239,26401;15,74041;846,26367;0,14192
239,46401;15,75374;846,82452;0,14205
239,66401;15,76702;846,53310;0,14218
239,86401;15,78038;847,35090;0,14231
240,06401;15,79374;847,35090;0,14245
240,26401;15,80707;846,64589;0,14258
240,46401;15,82044;846,14772;0,14272
240,66401;15,83377;846,08821;0,14285
240,86401;15,84710;846,94987;0,14298
241,06401;15,86038;847,03444;0,14311
241,26401;15,87366;846,50181;0,14325
241,46401;15,88708;847,26634;0,14338
241,66401;15,90041;846,98116;0,14351
241,86401;15,91374;847,42615;0,14365
242,06401;15,92707;847,05641;0,14378
242,26401;15,94038;846,62084;0,14391
242,46401;15,95377;847,43556;0,14405
242,66401;15,96705;847,12533;0,14418
242,86401;15,98044;847,27891;0,14431
243,06401;15,99374;847,10028;0,14445
243,26401;16,00705;847,14415;0,14458
243,46401;16,02041;848,14681;0,14471
243,66401;16,03374;847,30079;0,14485
243,86401;16,04710;847,17236;0,14498
244,06401;16,06041;847,12217;0,14511
244,26401;16,07371;847,34159;0,14525
244,46401;16,08708;846,60519;0,14538
244,66401;16,10041;846,98750;0,14551
244,86401;16,11377;847,19425;0,14564
245,06401;16,12707;848,18127;0,14578
245,26401;16,14038;847,20058;0,14591
245,46401;16,15374;847,04077;0,14604
245,66401;16,16707;847,16603;0,14618
245,86401;16,18041;847,54517;0,14631
246,06401;16,19374;847,34783;0,14644
246,26401;16,20705;847,40417;0,14657
246,46401;16,22041;847,57339;0,14671
246,66401;16,23371;847,62359;0,14684
246,86401;16,24707;847,62042;0,14697
247,06401;16,26044;847,20366;0,14711
247,26401;16,27371;847,13157;0,14724
247,46401;16,28705;847,30079;0,14737
247,66401;16,30038;847,96827;0,14750
247,86401;16,31377;847,85540;0,14764
248,06401;16,32707;847,96827;0,14777
248,26401;16,34035;848,11551;0,14790
248,46401;16,35377;847,79589;0,14803
248,66401;16,36707;848,34108;0,14817
248,86401;16,38041;847,68934;0,14830
249,06401;16,39374;847,63300;0,14843
249,26401;16,40707;847,78648;0,14856
249,46401;16,42041;848,27533;0,14869
249,66401;16,43368;848,06848;0,14883
249,86401;16,44708;848,02145;0,14896
250,06401;16,46044;848,74844;0,14909
250,26401;16,47371;848,02462;0,14922
250,46401;16,48705;847,76459;0,14935
250,66401;16,50041;848,23146;0,14948
250,86401;16,51374;848,41317;0,14962
251,06401;16,52707;848,50406;0,14975
251,26401;16,54038;847,80846;0,14988
251,46401;16,55380;849,04926;0,15001
251,66401;16,56707;848,25335;0,15014
251,86401;16,58038;848,53536;0,15027
252,06401;16,59371;849,50048;0,15040
252,26401;16,60702;848,33167;0,15053
252,46401;16,62041;848,60120;0,15067
252,66401;16,63371;848,62309;0,15079
252,86401;16,64710;848,98341;0,15093
253,06401;16,66041;848,60427;0,15106
253,26401;16,67368;847,77083;0,15119
253,46401;16,68710;848,74844;0,15132
253,66401;16,70041;848,56981;0,15146
253,86401;16,71374;848,15314;0,15160
254,06401;16,72702;848,31920;0,15174
254,26401;16,74041;848,02462;0,15188
254,46401;16,75380;848,73904;0,15202
254,66401;16,76707;848,92707;0,15216
254,86401;16,78041;848,46644;0,15230
255,06401;16,79371;849,35324;0,15244
255,26401;16,80705;848,29098;0,15258
255,46401;16,82038;848,81112;0,15272
255,66401;16,83374;848,94588;0,15286
255,86401;16,84710;847,97759;0,15300
256,06401;16,86041;848,77042;0,15314
256,26401;16,87368;848,52912;0,15328
256,46401;16,88707;849,83893;0,15342
256,66401;16,90038;848,34108;0,15356
256,86401;16,91374;848,53852;0,15369
257,06401;16,92707;848,74528;0,15383
257,26401;16,94038;848,31603;0,15397
257,46401;16,95377;849,44721;0,15410
257,66401;16,96707;848,53536;0,15424
257,86401;16,98044;848,39752;0,15438
258,06401;16,99374;849,14323;0,15451
258,26401;17,00702;847,42932;0,15464
258,46401;17,02041;848,06224;0,15478
258,66401;17,03374;847,52645;0,15491
258,86401;17,04710;848,35049;0,15504
259,06401;17,06041;848,31286;0,15516
259,26401;17,07371;847,83658;0,15528
259,46401;17,08702;847,80212;0,15540
259,66401;17,10038;847,56399;0,15552
259,86401;17,11377;847,06889;0,15564
260,06401;17,12710;847,62042;0,15575
260,26401;17,14041;847,11276;0,15584
260,33201;17,14491;303,19402;0,15428
260,45001;17,15283;9,86778;0,14713
260,65001;17,16613;7,67126;0,14220
260,85001;17,17947;8,57682;0,13905
261,05001;17,19280;8,05040;0,13663
261,25001;17,20610;8,05981;0,13459
261,45001;17,21950;8,89016;0,13283
261,65001;17,23280;7,76213;0,13126
261,85001;17,24619;8,07861;0,12985
262,05001;17,25952;8,33240;0,12855
262,25001;17,27277;8,08800;0,12735
262,45001;17,28611;8,26974;0,12623
262,65001;17,29941;8,07233;0,12519
262,85001;17,31283;8,46401;0,12420
263,05001;17,32613;7,44564;0,12326
263,25001;17,33947;7,59605;0,12238
263,41801;17,35069;8,52041;0,12167