File: 02_Appendices/Appendix_C_Experimental_Data_and_Analysis Reports/C_1_Materials_Tests/C_1_1_Tensile_tests/C_1_1_6_Resto Quanton 3D/Specimen_RawData_10.csv
Text Inputs : Specimen label;"1"
Dimension : Length;50,00000;mm
Dimension : Final length;100,00000;mm
Test : Rate 1;4,00000;mm/min
General : Unique Identifier;"{26D6FC42-49AE-4369-8BC2-B907AACDD171}"

Time;Extension;Load;Strain 1
(sec);(mm);(N);(mm/mm)
0,00000;0,00000;0,50007;0,00000
0,10000;0,00405;-0,04201;0,00000
0,20000;0,01020;0,70374;0,00000
0,30000;0,01715;4,67066;0,00001
0,40000;0,02442;12,03421;0,00007
0,50000;0,03177;20,21558;0,00013
0,60000;0,03900;28,23402;0,00019
0,70000;0,04601;35,27796;0,00024
0,80000;0,05291;42,78565;0,00029
0,90000;0,05977;48,28481;0,00034
1,00000;0,06647;54,91200;0,00039
1,10000;0,07325;62,14082;0,00043
1,20000;0,08000;66,90676;0,00048
1,30000;0,08664;73,23314;0,00053
1,40000;0,09336;78,40330;0,00057
1,50000;0,10003;85,41590;0,00062
1,60000;0,10670;90,56726;0,00066
1,70000;0,11330;95,24546;0,00071
1,80000;0,11997;99,58212;0,00075
1,90000;0,12667;104,14126;0,00080
2,00000;0,13330;106,84227;0,00084
2,10000;0,14003;112,13149;0,00088
2,20000;0,14667;114,55989;0,00091
2,30000;0,15328;115,60019;0,00093
2,40000;0,15997;116,38355;0,00094
2,50000;0,16667;116,80030;0,00095
2,60000;0,17333;116,95070;0,00096
2,70000;0,18003;117,16691;0,00097
2,80000;0,18675;117,71839;0,00098
2,90000;0,19339;117,80612;0,00099
3,00000;0,20000;118,03487;0,00100
3,10000;0,20667;118,59575;0,00100
3,20000;0,21333;118,24167;0,00101
3,30000;0,21991;119,10649;0,00102
3,40000;0,22661;118,21347;0,00103
3,50000;0,23336;118,93102;0,00103
3,60000;0,24003;118,52995;0,00103
3,70000;0,24664;119,43864;0,00104
3,80000;0,25333;119,82091;0,00104
3,90000;0,26000;118,60202;0,00105
4,00000;0,26661;119,48564;0,00105
4,10000;0,27333;119,71125;0,00106
4,20000;0,28003;119,44490;0,00106
4,30000;0,28669;119,16290;0,00107
4,40000;0,29333;119,81152;0,00107
4,50000;0,30000;119,78018;0,00107
4,60000;0,30667;119,61098;0,00108
4,70000;0,31330;120,09980;0,00108
4,80000;0,32000;120,60427;0,00108
4,90000;0,32672;119,83658;0,00108
5,00000;0,33333;119,66111;0,00108
5,10000;0,34003;120,19693;0,00108
5,20000;0,34669;120,41314;0,00109
5,30000;0,35330;119,68304;0,00109
5,40000;0,35997;120,39120;0,00109
5,50000;0,36667;121,01788;0,00109
5,60000;0,37336;120,98028;0,00110
5,70000;0,38003;120,84555;0,00110
5,80000;0,38669;122,18038;0,00110
5,90000;0,39336;121,43463;0,00110
6,00000;0,39997;121,61951;0,00110
6,10000;0,40667;121,21216;0,00110
6,20000;0,41333;121,08682;0,00111
6,30000;0,41994;121,51296;0,00111
6,40000;0,42664;122,05192;0,00111
6,50000;0,43336;122,24619;0,00111
6,60000;0,44003;122,93868;0,00111
6,70000;0,44664;123,07968;0,00111
6,80000;0,45333;124,64012;0,00112
6,90000;0,46000;124,14504;0,00112
7,00000;0,46667;124,29545;0,00112
7,10000;0,47339;126,85859;0,00113
7,20000;0,48006;127,63882;0,00114
7,30000;0,48664;128,98305;0,00114
7,40000;0,49330;129,97321;0,00114
7,50000;0,50000;131,39580;0,00115
7,60000;0,50667;134,16260;0,00116
7,70000;0,51328;136,55655;0,00118
7,80000;0,51997;140,26025;0,00120
7,90000;0,52664;141,85830;0,00121
8,00000;0,53328;146,32656;0,00124
8,10000;0,54000;149,76707;0,00126
8,20000;0,54669;153,38931;0,00129
8,30000;0,55328;157,54423;0,00131
8,40000;0,56000;162,11589;0,00134
8,50000;0,56672;166,18621;0,00137
8,60000;0,57339;170,42261;0,00140
8,70000;0,58000;174,23598;0,00143
8,80000;0,58669;178,45671;0,00146
8,90000;0,59336;181,88468;0,00148
9,00000;0,59997;186,51275;0,00151
9,10000;0,60669;190,95595;0,00154
9,20000;0,61336;194,96046;0,00157
9,30000;0,61997;199,56974;0,00160
9,40000;0,62664;203,30790;0,00164
9,50000;0,63333;207,71350;0,00167
9,60000;0,64000;212,67999;0,00170
9,70000;0,64664;216,38055;0,00173
9,80000;0,65333;221,53817;0,00176
9,90000;0,66003;226,05658;0,00180
10,00000;0,66667;229,63807;0,00183
10,10000;0,67336;234,76749;0,00186
10,20000;0,68003;239,13863;0,00190
10,30000;0,68664;242,98960;0,00194
10,40000;0,69333;248,48876;0,00197
10,50000;0,70000;253,72473;0,00201
10,60000;0,70669;257,99244;0,00204
10,70000;0,71330;262,09725;0,00208
10,80000;0,71997;266,60936;0,00211
10,90000;0,72664;270,67342;0,00215
11,00000;0,73328;275,57409;0,00219
11,10000;0,74000;281,18293;0,00222
11,20000;0,74669;283,94661;0,00226
11,30000;0,75333;288,66869;0,00229
11,40000;0,76003;293,67590;0,00233
11,50000;0,76672;297,74623;0,00236
11,60000;0,77336;301,99827;0,00240
11,70000;0,77997;305,89940;0,00244
11,80000;0,78667;310,01670;0,00247
11,90000;0,79336;314,85471;0,00251
12,00000;0,80000;319,01905;0,00254
12,10000;0,80669;323,38705;0,00258
12,20000;0,81333;327,63598;0,00261
12,30000;0,81994;331,92877;0,00265
12,40000;0,82664;335,67008;0,00269
12,50000;0,83336;341,26637;0,00273
12,60000;0,84003;345,23641;0,00276
12,70000;0,84667;349,30988;0,00280
12,80000;0,85336;354,83411;0,00284
12,90000;0,86003;357,71371;0,00288
13,00000;0,86664;361,92818;0,00292
13,10000;0,87333;366,66279;0,00295
13,20000;0,88003;370,99945;0,00299
13,30000;0,88664;375,13557;0,00303
13,40000;0,89336;379,14636;0,00306
13,50000;0,90006;384,02509;0,00310
13,60000;0,90669;388,13301;0,00314
13,70000;0,91330;392,00280;0,00317
13,80000;0,91997;396,22979;0,00321
13,90000;0,92664;399,55745;0,00325
14,00000;0,93328;403,66855;0,00328
14,10000;0,94003;407,99580;0,00331
14,20000;0,94669;410,47744;0,00335
14,30000;0,95333;414,94258;0,00338
14,40000;0,96000;417,96323;0,00341
14,50000;0,96669;422,69467;0,00344
14,60000;0,97336;426,08506;0,00347
14,70000;0,97997;428,88634;0,00351
14,80000;0,98667;432,82192;0,00354
14,90000;0,99336;436,43164;0,00357
15,00000;0,99997;439,71231;0,00360
15,10000;1,00664;442,79560;0,00363
15,20000;1,01333;446,37714;0,00367
15,30000;1,01994;450,58532;0,00370
15,40000;1,02661;453,60592;0,00373
15,50000;1,03336;456,79263;0,00376
15,60000;1,04006;461,42698;0,00379
15,70000;1,04669;464,00889;0,00383
15,80000;1,05336;467,37106;0,00386
15,90000;1,06003;470,83348;0,00389
16,00000;1,06664;473,91681;0,00392
16,10000;1,07336;477,89309;0,00395
16,20000;1,08003;481,24902;0,00398
16,30000;1,08667;483,65234;0,00402
16,40000;1,09333;487,81042;0,00405
16,50000;1,10000;490,94697;0,00408
16,60000;1,10667;494,82929;0,00411
16,70000;1,11330;498,07550;0,00414
16,80000;1,11997;500,92377;0,00418
16,90000;1,12664;503,73133;0,00421
17,00000;1,13330;506,87105;0,00424
17,10000;1,14003;511,04478;0,00427
17,20000;1,14669;513,24754;0,00430
17,30000;1,15330;517,22699;0,00433
17,40000;1,15997;520,43875;0,00436
17,50000;1,16667;523,27453;0,00439
17,60000;1,17336;526,04759;0,00442
17,70000;1,18003;529,72939;0,00445
17,80000;1,18672;532,59647;0,00448
17,90000;1,19339;535,75183;0,00451
18,00000;1,19997;539,32704;0,00454
18,10000;1,20667;542,11579;0,00457
18,20000;1,21330;545,28681;0,00461
18,30000;1,21988;548,60199;0,00464
18,40000;1,22664;551,69156;0,00467
18,50000;1,23336;554,73726;0,00470
18,60000;1,24006;557,86753;0,00473
18,70000;1,24667;560,54662;0,00476
18,80000;1,25333;564,64826;0,00479
18,90000;1,26003;567,35557;0,00482
19,00000;1,26664;570,00327;0,00485
19,10000;1,27333;573,56600;0,00488
19,20000;1,28003;576,71196;0,00491
19,30000;1,28664;579,41922;0,00494
19,40000;1,29333;583,18563;0,00497
19,50000;1,30003;586,82980;0,00500
19,60000;1,30667;589,09841;0,00503
19,70000;1,31330;592,03752;0,00507
19,80000;1,32000;595,45925;0,00509
19,90000;1,32672;598,45792;0,00512
20,00000;1,33336;601,50051;0,00515
20,10000;1,34006;603,91636;0,00518
20,20000;1,34669;607,10618;0,00521
20,30000;1,35330;610,20828;0,00524
20,40000;1,35997;612,86543;0,00527
20,50000;1,36667;615,83277;0,00530
20,60000;1,37336;619,00695;0,00532
20,70000;1,37997;620,78671;0,00536
20,80000;1,38667;624,09877;0,00538
20,90000;1,39336;627,29171;0,00541
21,00000;1,39997;630,40322;0,00544
21,10000;1,40664;633,17316;0,00546
21,20000;1,41333;635,26002;0,00549
21,30000;1,41997;638,19601;0,00552
21,40000;1,42666;640,95343;0,00555
21,50000;1,43336;644,46288;0,00558
21,60000;1,44003;647,81876;0,00561
21,70000;1,44664;649,62050;0,00563
21,80000;1,45333;652,01758;0,00566
21,90000;1,46003;655,64923;0,00569
22,00000;1,46667;658,86099;0,00572
22,10000;1,47339;661,14524;0,00575
22,20000;1,48003;665,01503;0,00577
22,30000;1,48664;666,63814;0,00580
22,40000;1,49333;670,37004;0,00583
22,50000;1,49997;674,01109;0,00586
22,60000;1,50664;676,32040;0,00589
22,70000;1,51327;678,83031;0,00591
22,80000;1,52000;681,76319;0,00594
22,90000;1,52669;684,46733;0,00597
23,00000;1,53333;687,12449;0,00600
23,10000;1,54003;690,42086;0,00603
23,20000;1,54669;692,81477;0,00606
23,30000;1,55330;695,95445;0,00609
23,40000;1,56000;698,53952;0,00611
23,50000;1,56669;702,31846;0,00614
23,60000;1,57336;704,64034;0,00617
23,70000;1,57997;706,89637;0,00619
23,80000;1,58669;709,55041;0,00623
23,90000;1,59336;712,90317;0,00625
24,00000;1,59997;715,72009;0,00628
24,10000;1,60669;718,28952;0,00631
24,20000;1,61336;721,27883;0,00634
24,30000;1,61997;724,43732;0,00637
24,40000;1,62666;726,56488;0,00640
24,50000;1,63336;730,74489;0,00643
24,60000;1,64003;732,78476;0,00645
24,70000;1,64664;735,11917;0,00648
24,80000;1,65330;738,35598;0,00651
24,90000;1,66003;740,31749;0,00654
25,00000;1,66664;743,32873;0,00657
25,10000;1,67333;746,33681;0,00660
25,20000;1,68003;748,90624;0,00663
25,30000;1,68664;752,47521;0,00665
25,40000;1,69330;754,75005;0,00668
25,50000;1,70000;757,85215;0,00671
25,60000;1,70669;759,36560;0,00674
25,70000;1,71333;762,23267;0,00677
25,80000;1,71997;765,40997;0,00680
25,90000;1,72666;768,07337;0,00683
26,00000;1,73327;771,30394;0,00686
26,10000;1,74003;773,82950;0,00688
26,20000;1,74669;775,89443;0,00691
26,30000;1,75333;780,17469;0,00694
26,40000;1,76000;782,10486;0,00697
26,50000;1,76669;784,01938;0,00700
26,60000;1,77336;787,64474;0,00703
26,70000;1,77997;790,46795;0,00706
26,80000;1,78666;792,90578;0,00709
26,90000;1,79336;795,87316;0,00712
27,00000;1,79997;799,23533;0,00714
27,10000;1,80669;801,34720;0,00717
27,20000;1,81336;803,99178;0,00720
27,30000;1,81997;807,58901;0,00723
27,40000;1,82664;809,47215;0,00726
27,50000;1,83336;812,93145;0,00729
27,60000;1,84003;816,25609;0,00732
27,70000;1,84664;817,61908;0,00735
27,80000;1,85333;821,25077;0,00738
27,90000;1,86000;823,66038;0,00741
28,00000;1,86664;826,69659;0,00744
28,10000;1,87333;829,51356;0,00747
28,20000;1,88003;832,75978;0,00750
28,30000;1,88664;835,11928;0,00753
28,40000;1,89336;837,99576;0,00756
28,50000;1,90008;840,70927;0,00758
28,60000;1,90672;843,44791;0,00761
28,70000;1,91333;846,41529;0,00764
28,80000;1,91997;849,24791;0,00767
28,90000;1,92666;852,03974;0,00770
29,00000;1,93327;855,64945;0,00773
29,10000;1,94000;858,10926;0,00776
29,20000;1,94669;861,63115;0,00779
29,30000;1,95327;863,42348;0,00782
29,40000;1,95997;866,44096;0,00785
29,50000;1,96666;869,17961;0,00788
29,60000;1,97336;872,05926;0,00791
29,70000;1,97997;874,55660;0,00794
29,80000;1,98669;878,15374;0,00797
29,90000;1,99339;881,63186;0,00800
30,00000;2,00000;884,47072;0,00803
30,10000;2,00669;886,51059;0,00805
30,20000;2,01336;889,81632;0,00808
30,30000;2,01994;892,11315;0,00811
30,40000;2,02664;894,77655;0,00814
30,50000;2,03339;897,60916;0,00817
30,60000;2,04005;900,85538;0,00820
30,70000;2,04666;902,80436;0,00823
30,80000;2,05333;906,70865;0,00827
30,90000;2,06000;909,18401;0,00830
31,00000;2,06661;912,13575;0,00832
31,10000;2,07330;916,04935;0,00835
31,20000;2,08003;918,73789;0,00838
31,30000;2,08666;920,93749;0,00841
31,40000;2,09336;923,29700;0,00845
31,50000;2,10003;926,60906;0,00848
31,60000;2,10669;928,87767;0,00850
31,70000;2,11330;931,66325;0,00853
31,80000;2,11997;933,90364;0,00856
31,90000;2,12666;937,95517;0,00859
32,00000;2,13330;940,23943;0,00862
32,10000;2,14003;943,14730;0,00865
32,20000;2,14669;946,84474;0,00868
32,30000;2,15330;948,68401;0,00871
32,40000;2,15997;951,71714;0,00874
32,50000;2,16669;954,31162;0,00878
32,60000;2,17336;957,47951;0,00881
32,70000;2,18003;961,07358;0,00884
32,80000;2,18672;963,02880;0,00887
32,90000;2,19339;965,87716;0,00890
33,00000;2,19997;968,75988;0,00893
33,10000;2,20664;970,93452;0,00896
33,20000;2,21330;973,99894;0,00899
33,30000;2,21991;977,45825;0,00902
33,40000;2,22661;979,57021;0,00905
33,50000;2,23336;982,12389;0,00908
33,60000;2,24003;984,93779;0,00911
33,70000;2,24664;987,43197;0,00914
33,80000;2,25333;990,68442;0,00917
33,90000;2,26003;994,00906;0,00921
34,00000;2,26661;996,52512;0,00924
34,10000;2,27336;999,90610;0,00927
34,20000;2,28003;1003,38422;0,00930
34,30000;2,28666;1005,70926;0,00933
34,40000;2,29333;1008,01857;0,00936
34,50000;2,30003;1011,85078;0,00939
34,60000;2,30669;1013,99086;0,00942
34,70000;2,31330;1016,82348;0,00945
34,80000;2,32000;1019,61540;0,00948
34,90000;2,32669;1021,56121;0,00951
35,00000;2,33330;1025,67542;0,00955
35,10000;2,34000;1028,13831;0,00958
35,20000;2,34669;1030,50089;0,00961
35,30000;2,35327;1034,85323;0,00964
35,40000;2,35994;1035,83084;0,00967
35,50000;2,36666;1039,13974;0,00970
35,60000;2,37336;1042,54577;0,00973
35,70000;2,38003;1045,48177;0,00976
35,80000;2,38669;1047,39321;0,00979
35,90000;2,39339;1050,94966;0,00982
36,00000;2,40000;1053,70702;0,00985
36,10000;2,40666;1056,16366;0,00988
36,20000;2,41333;1059,34097;0,00992
36,30000;2,41994;1062,49629;0,00995
36,40000;2,42664;1064,47665;0,00998
36,50000;2,43333;1067,82001;0,01001
36,60000;2,44000;1070,84373;0,01004
36,70000;2,44664;1072,70814;0,01007
36,80000;2,45330;1076,33667;0,01010
36,90000;2,46000;1079,32594;0,01014
37,00000;2,46666;1081,89536;0,01017
37,10000;2,47339;1084,76244;0,01020
37,20000;2,48005;1087,68595;0,01023
37,30000;2,48666;1090,21459;0,01026
37,40000;2,49333;1093,45457;0,01029
37,50000;2,50000;1095,70120;0,01032
37,60000;2,50666;1098,48687;0,01036
37,70000;2,51330;1101,19097;0,01039
37,80000;2,51997;1104,11132;0,01042
37,90000;2,52666;1106,66193;0,01045
38,00000;2,53327;1109,39424;0,01048
38,10000;2,54000;1113,11367;0,01051
38,20000;2,54669;1116,43821;0,01055
38,30000;2,55327;1119,07972;0,01058
38,40000;2,56000;1120,95661;0,01061
38,50000;2,56669;1123,86448;0,01064
38,60000;2,57336;1127,08565;0,01067
38,70000;2,58000;1129,76786;0,01070
38,80000;2,58669;1132,12420;0,01074
38,90000;2,59336;1135,89680;0,01077
39,00000;2,60000;1138,21244;0,01080
39,10000;2,60669;1140,43709;0,01083
39,20000;2,61339;1143,68340;0,01086
39,30000;2,61997;1146,43136;0,01090
39,40000;2,62664;1148,64353;0,01093
39,50000;2,63336;1151,40416;0,01096
39,60000;2,64000;1154,48432;0,01099
39,70000;2,64661;1157,35764;0,01102
39,80000;2,65330;1160,04301;0,01106
39,90000;2,66003;1163,26725;0,01109
40,00000;2,66666;1165,55467;0,01112
40,10000;2,67336;1169,15498;0,01116
40,20000;2,68003;1171,48627;0,01119
40,30000;2,68664;1173,99925;0,01122
40,40000;2,69333;1176,89138;0,01125
40,50000;2,70000;1179,89946;0,01128
40,60000;2,70669;1182,25580;0,01132
40,70000;2,71330;1185,27645;0,01135
40,80000;2,71997;1187,61715;0,01138
40,90000;2,72666;1189,79169;0,01142
41,00000;2,73330;1193,17267;0,01145
41,10000;2,74000;1196,52543;0,01148
41,20000;2,74669;1199,03218;0,01151
41,30000;2,75333;1202,05283;0,01154
41,40000;2,76003;1204,80713;0,01158
41,50000;2,76672;1207,12584;0,01161
41,60000;2,77336;1209,81745;0,01164
41,70000;2,77997;1213,22665;0,01168
41,80000;2,78666;1215,67696;0,01171
41,90000;2,79336;1219,30856;0,01174
42,00000;2,79997;1220,92860;0,01177
42,10000;2,80666;1223,99302;0,01180
42,20000;2,81333;1226,55937;0,01184
42,30000;2,81994;1229,26030;0,01187
42,40000;2,82663;1231,51951;0,01190
42,50000;2,83333;1234,99138;0,01194
42,60000;2,84003;1238,08412;0,01197
42,70000;2,84666;1240,11766;0,01200
42,80000;2,85336;1242,61184;0,01204
42,90000;2,86005;1246,33126;0,01207
43,00000;2,86666;1248,73770;0,01210
43,10000;2,87336;1251,37921;0,01213
43,20000;2,88003;1253,38146;0,01217
43,30000;2,88664;1256,66531;0,01220
43,40000;2,89336;1260,36899;0,01223
43,50000;2,90005;1262,50284;0,01227
43,60000;2,90669;1265,07226;0,01230
43,70000;2,91330;1267,55396;0,01233
43,80000;2,91997;1270,75007;0,01237
43,90000;2,92663;1273,10641;0,01240
44,00000;2,93327;1275,69772;0,01243
44,10000;2,94000;1279,65519;0,01246
44,20000;2,94669;1281,39425;0,01250
44,30000;2,95330;1284,53402;0,01253
44,40000;2,96000;1286,81194;0,01256
44,50000;2,96669;1289,97043;0,01260
44,60000;2,97336;1292,96286;0,01263
44,70000;2,98000;1295,48218;0,01266
44,80000;2,98669;1297,78208;0,01270
44,90000;2,99339;1300,98443;0,01273
45,00000;2,99997;1304,19312;0,01276
45,10000;3,00663;1306,23924;0,01280
45,20000;3,01333;1309,86460;0,01283
45,30000;3,01994;1312,39956;0,01286
45,40000;3,02661;1314,38924;0,01290
45,50000;3,03336;1317,86736;0,01293
45,60000;3,04005;1320,08586;0,01296
45,70000;3,04669;1322,49547;0,01300
45,80000;3,05336;1326,02053;0,01303
45,90000;3,06003;1328,79363;0,01307
46,00000;3,06663;1331,06848;0,01310
46,10000;3,07333;1334,52155;0,01313
46,20000;3,08002;1336,55509;0,01317
46,30000;3,08663;1338,63259;0,01320
46,40000;3,09333;1342,69660;0,01324
46,50000;3,10002;1344,49834;0,01327
46,60000;3,10669;1347,94200;0,01330
46,70000;3,11330;1349,60273;0,01333
46,80000;3,11997;1353,14036;0,01337
46,90000;3,12663;1355,68157;0,01340
47,00000;3,13330;1357,91562;0,01344
47,10000;3,14003;1361,52226;0,01347
47,20000;3,14669;1363,01685;0,01351
47,30000;3,15330;1366,27881;0,01354
47,40000;3,15997;1368,93280;0,01357
47,50000;3,16669;1370,78147;0,01361
47,60000;3,17336;1374,70458;0,01364
47,70000;3,18002;1377,41808;0,01368
47,80000;3,18672;1379,10703;0,01371
47,90000;3,19339;1383,10213;0,01374
48,00000;3,19997;1384,65948;0,01378
48,10000;3,20666;1387,36358;0,01381
48,20000;3,21333;1390,02074;0,01385
48,30000;3,21991;1392,93484;0,01388
48,40000;3,22661;1394,98720;0,01392
48,50000;3,23336;1398,45591;0,01395
48,60000;3,24005;1400,65560;0,01399
48,70000;3,24666;1403,42237;0,01402
48,80000;3,25333;1405,91664;0,01405
48,90000;3,26000;1408,89334;0,01409
49,00000;3,26663;1410,59170;0,01412
49,10000;3,27333;1414,51471;0,01416
49,20000;3,28002;1417,32544;0,01419
49,30000;3,28663;1419,24620;0,01423
49,40000;3,29333;1422,29507;0,01426
49,50000;3,30000;1425,07441;0,01429
49,60000;3,30666;1427,68137;0,01433
49,70000;3,31330;1429,68055;0,01436
49,80000;3,32000;1433,04579;0,01440
49,90000;3,32672;1435,28311;0,01443
50,00000;3,33336;1437,87125;0,01447
50,10000;3,34002;1440,72901;0,01450
50,20000;3,34669;1442,78137;0,01454
50,30000;3,35330;1445,76440;0,01457
50,40000;3,35997;1447,67892;0,01461
50,50000;3,36666;1450,80918;0,01464
50,60000;3,37336;1454,61317;0,01468
50,70000;3,38000;1456,19558;0,01471
50,80000;3,38669;1459,27574;0,01475
50,90000;3,39336;1462,01430;0,01479
51,00000;3,39997;1465,21982;0,01482
51,10000;3,40663;1467,34118;0,01485
51,20000;3,41333;1470,18945;0,01489
51,30000;3,41994;1473,06910;0,01492
51,40000;3,42666;1475,36900;0,01496
51,50000;3,43336;1478,26429;0,01499
51,60000;3,44002;1480,64569;0,01503
51,70000;3,44663;1482,79211;0,01506
51,80000;3,45333;1485,91613;0,01510
51,90000;3,46002;1488,79569;0,01514
52,00000;3,46666;1491,08004;0,01517
52,10000;3,47339;1494,16011;0,01521
52,20000;3,48002;1496,69200;0,01525
52,30000;3,48663;1499,09528;0,01528
52,40000;3,49330;1501,21972;0,01531
52,50000;3,49997;1504,27483;0,01535
52,60000;3,50666;1507,14507;0,01539
52,70000;3,51330;1509,43873;0,01542
52,80000;3,52000;1512,60039;0,01546
52,90000;3,52669;1515,46430;0,01549
53,00000;3,53333;1517,77994;0,01553
53,10000;3,54002;1520,48403;0,01556
53,20000;3,54669;1521,95366;0,01560
53,30000;3,55330;1525,30950;0,01564
53,40000;3,56000;1527,97299;0,01567
53,50000;3,56669;1530,26972;0,01571
53,60000;3,57336;1533,32800;0,01574
53,70000;3,57997;1535,64354;0,01578
53,80000;3,58669;1537,46409;0,01582
53,90000;3,59336;1541,00796;0,01585
54,00000;3,59994;1543,39252;0,01589
54,10000;3,60666;1546,23454;0,01592
54,20000;3,61339;1548,28383;0,01596
54,30000;3,62000;1551,35142;0,01600
54,40000;3,62666;1553,87381;0,01603
54,50000;3,63336;1556,12994;0,01607
54,60000;3,64002;1559,45765;0,01610
54,70000;3,64663;1561,31573;0,01614
54,80000;3,65333;1564,25480;0,01617
54,90000;3,66002;1567,48220;0,01621
55,00000;3,66663;1568,96133;0,01625
55,10000;3,67333;1571,72494;0,01628
55,20000;3,68002;1574,41646;0,01632
55,30000;3,68663;1576,09601;0,01635
55,40000;3,69330;1579,66819;0,01639
55,50000;3,70000;1581,90541;0,01643
55,60000;3,70669;1584,49356;0,01646
55,70000;3,71330;1586,99732;0,01650
55,80000;3,71997;1589,80470;0,01654
55,90000;3,72666;1592,23005;0,01658
56,00000;3,73330;1593,85633;0,01661
56,10000;3,74002;1597,47228;0,01665
56,20000;3,74669;1599,14866;0,01669
56,30000;3,75333;1602,21625;0,01672
56,40000;3,76000;1605,16482;0,01676
56,50000;3,76669;1607,15766;0,01680
56,60000;3,77336;1609,92444;0,01683
56,70000;3,77997;1611,84836;0,01687
56,80000;3,78666;1614,55572;0,01691
56,90000;3,79333;1618,19048;0,01694
57,00000;3,79997;1620,14887;0,01698
57,10000;3,80669;1622,65245;0,01702
57,20000;3,81336;1624,48864;0,01705
57,30000;3,81994;1627,53444;0,01709
57,40000;3,82663;1629,07280;0,01713
57,50000;3,83336;1632,05583;0,01717
57,60000;3,84002;1635,48067;0,01721
57,70000;3,84666;1637,26993;0,01724
57,80000;3,85336;1640,35000;0,01728
57,90000;3,86002;1643,53680;0,01732
58,00000;3,86663;1644,91236;0,01735
58,10000;3,87333;1647,92035;0,01739
58,20000;3,88002;1650,41462;0,01743
58,30000;3,88666;1652,48588;0,01747
58,40000;3,89336;1655,11798;0,01750
58,50000;3,90005;1656,93220;0,01754
58,60000;3,90672;1659,76472;0,01758
58,70000;3,91333;1662,25899;0,01762
58,80000;3,91997;1664,64355;0,01765
58,90000;3,92663;1667,15346;0,01769
59,00000;3,93327;1669,52852;0,01773
59,10000;3,94000;1673,39519;0,01777
59,20000;3,94669;1674,49508;0,01780
59,30000;3,95330;1677,66921;0,01784
59,40000;3,95997;1679,80306;0,01788
59,50000;3,96666;1682,96788;0,01791
59,60000;3,97336;1685,33977;0,01795
59,70000;3,97997;1686,97536;0,01799
59,80000;3,98669;1688,90562;0,01803
59,90000;3,99339;1692,65009;0,01807
60,00000;4,00002;1694,58333;0,01811
60,10000;4,00669;1697,66042;0,01814
60,20000;4,01336;1699,82258;0,01818
60,30000;4,01994;1702,78680;0,01822
60,40000;4,02663;1704,64162;0,01826
60,50000;4,03336;1707,88802;0,01830
60,60000;4,04005;1710,42290;0,01834
60,70000;4,04669;1712,08363;0,01838
60,80000;4,05333;1714,14539;0,01842
60,90000;4,06002;1717,96810;0,01845
61,00000;4,06663;1719,96094;0,01849
61,10000;4,07333;1722,44273;0,01853
61,20000;4,08002;1724,54212;0,01857
61,30000;4,08666;1726,35633;0,01861
61,40000;4,09336;1729,03854;0,01865
61,50000;4,10002;1731,11297;0,01868
61,60000;4,10669;1734,35286;0,01872
61,70000;4,11330;1737,27944;0,01876
61,80000;4,11997;1738,15992;0,01880
61,90000;4,12666;1740,79835;0,01884
62,00000;4,13330;1743,48373;0,01888
62,10000;4,14002;1746,55747;0,01892
62,20000;4,14669;1748,09601;0,01896
62,30000;4,15330;1750,79070;0,01899
62,40000;4,15999;1752,96851;0,01903
62,50000;4,16669;1755,15879;0,01907
62,60000;4,17336;1758,91574;0,01911
62,70000;4,18002;1760,88978;0,01915
62,80000;4,18672;1761,82669;0,01919
62,90000;4,19339;1765,23905;0,01923
63,00000;4,19997;1767,26002;0,01927
63,10000;4,20663;1769,58814;0,01931
63,20000;4,21330;1772,69336;0,01934
63,30000;4,21991;1773,98752;0,01938
63,40000;4,22663;1776,50061;0,01943
63,50000;4,23336;1778,83189;0,01946
63,60000;4,24002;1781,83988;0,01950
63,70000;4,24663;1783,44101;0,01954
63,80000;4,25333;1785,95409;0,01958
63,90000;4,26002;1788,80244;0,01962
64,00000;4,26663;1791,01452;0,01966
64,10000;4,27336;1792,94478;0,01970
64,20000;4,28005;1794,55541;0,01974
64,30000;4,28669;1796,63599;0,01978
64,40000;4,29336;1799,87587;0,01982
64,50000;4,29999;1801,37679;0,01986
64,60000;4,30666;1805,08364;0,01990
64,70000;4,31327;1806,36216;0,01994
64,80000;4,31999;1808,45521;0,01998
64,90000;4,32672;1810,61104;0,02002
65,00000;4,33333;1813,65982;0,02006
65,10000;4,34002;1816,35767;0,02010
65,20000;4,34669;1817,29458;0,02014
65,30000;4,35327;1820,18671;0,02018
65,40000;4,35994;1822,52750;0,02022
65,50000;4,36669;1825,04673;0,02026
65,60000;4,37336;1827,10849;0,02030
65,70000;4,38002;1829,36452;0,02034
65,80000;4,38672;1830,90940;0,02038
65,90000;4,39339;1834,31543;0,02042
66,00000;4,39999;1836,61524;0,02046
66,10000;4,40666;1838,43896;0,02050
66,20000;4,41333;1840,42249;0,02054
66,30000;4,41994;1842,69100;0,02058
66,40000;4,42663;1844,24836;0,02062
66,50000;4,43333;1846,95870;0,02066
66,60000;4,44002;1848,86083;0,02070
66,70000;4,44663;1851,06359;0,02074
66,80000;4,45333;1854,28783;0,02079
66,90000;4,45999;1856,50624;0,02083
67,00000;4,46666;1858,09173;0,02087
67,10000;4,47339;1861,85818;0,02091
67,20000;4,48005;1862,93926;0,02095
67,30000;4,48666;1864,50277;0,02099
67,40000;4,49333;1866,66492;0,02103
67,50000;4,49999;1869,46932;0,02107
67,60000;4,50666;1872,20797;0,02111
67,70000;4,51330;1873,61166;0,02116
67,80000;4,51997;1876,14653;0,02119
67,90000;4,52666;1877,59418;0,02124
68,00000;4,53330;1880,32035;0,02128
68,10000;4,54002;1883,16237;0,02132
68,20000;4,54669;1884,52546;0,02137
68,30000;4,55327;1886,84091;0,02141
68,40000;4,55999;1889,22863;0,02145
68,50000;4,56669;1891,74172;0,02149
68,60000;4,57338;1894,54928;0,02153
68,70000;4,57999;1897,20020;0,02157
68,80000;4,58669;1898,52249;0,02162
68,90000;4,59336;1901,19836;0,02166
69,00000;4,59997;1902,88723;0,02170
69,10000;4,60669;1905,35951;0,02174
69,20000;4,61336;1907,19254;0,02178
69,30000;4,61997;1909,21370;0,02182
69,40000;4,62663;1910,67383;0,02186
69,50000;4,63336;1913,75706;0,02191
69,60000;4,64002;1916,20737;0,02195
69,70000;4,64663;1917,72413;0,02199
69,80000;4,65333;1920,21504;0,02204
69,90000;4,66002;1922,84398;0,02208
70,00000;4,66669;1924,26983;0,02212
70,10000;4,67336;1926,38170;0,02216
70,20000;4,68005;1929,06074;0,02220
70,30000;4,68666;1931,62393;0,02225
70,40000;4,69333;1933,57598;0,02229
70,50000;4,69999;1935,54386;0,02233
70,60000;4,70669;1937,65257;0,02237
70,70000;4,71330;1939,73314;0,02241
70,80000;4,71997;1941,52240;0,02246
70,90000;4,72666;1943,38672;0,02250
71,00000;4,73327;1945,87167;0,02254
71,10000;4,73999;1948,52240;0,02258
71,20000;4,74669;1949,65359;0,02263
71,30000;4,75333;1952,16034;0,02267
71,40000;4,76002;1954,46350;0,02271
71,50000;4,76672;1956,26840;0,02276
71,60000;4,77336;1958,32383;0,02280
71,70000;4,77997;1960,80245;0,02284
71,80000;4,78666;1962,21862;0,02288
71,90000;4,79333;1965,31769;0,02293
72,00000;4,79994;1966,50829;0,02297
72,10000;4,80666;1968,94612;0,02301
72,20000;4,81333;1970,73221;0,02305
72,30000;4,81994;1972,86289;0,02309
72,40000;4,82663;1974,40460;0,02314
72,50000;4,83333;1976,91750;0,02318
72,60000;4,83999;1979,50266;0,02322
72,70000;4,84663;1980,49918;0,02327
72,80000;4,85336;1983,63885;0,02331
72,90000;4,86002;1984,69795;0,02336
73,00000;4,86666;1986,85061;0,02340
73,10000;4,87336;1989,38232;0,02345
73,20000;4,88005;1991,14326;0,02349
73,30000;4,88666;1992,34970;0,02353
73,40000;4,89336;1995,51769;0,02358
73,50000;4,90005;1996,59541;0,02362
73,60000;4,90669;1999,54715;0,02366
73,70000;4,91330;2001,02925;0,02371
73,80000;4,91997;2002,40482;0,02375
73,90000;4,92663;2004,41331;0,02379
74,00000;4,93324;2006,28713;0,02384
74,10000;4,93999;2008,80654;0,02388
74,20000;4,94669;2009,67751;0,02392
74,30000;4,95330;2012,65737;0,02397
74,40000;4,95999;2014,45594;0,02401
74,50000;4,96669;2016,18560;0,02406
74,60000;4,97336;2019,23754;0,02410
74,70000;4,97999;2020,19028;0,02415
74,80000;4,98669;2021,97619;0,02419
74,90000;4,99338;2023,66821;0,02424
75,00000;4,99999;2025,84919;0,02428
75,10000;5,00666;2027,58200;0,02432
75,20000;5,01333;2029,45881;0,02437
75,30000;5,01994;2031,38273;0,02441
75,40000;5,02660;2032,88365;0,02445
75,50000;5,03333;2035,16167;0,02450
75,60000;5,04005;2037,52741;0,02454
75,70000;5,04669;2038,49878;0,02459
75,80000;5,05336;2040,55738;0,02463
75,90000;5,06002;2042,74766;0,02468
76,00000;5,06666;2044,64979;0,02472
76,10000;5,07336;2047,37894;0,02476
76,20000;5,08002;2048,63232;0,02481
76,30000;5,08666;2050,08630;0,02485
76,40000;5,09336;2051,87537;0,02490
76,50000;5,10002;2053,55175;0,02495
76,60000;5,10669;2055,98027;0,02499
76,70000;5,11330;2057,06749;0,02504
76,80000;5,11997;2059,22648;0,02508
76,90000;5,12663;2060,65830;0,02513
77,00000;5,13330;2063,21832;0,02517
77,10000;5,14005;2065,18304;0,02522
77,20000;5,14672;2066,14807;0,02526
77,30000;5,15330;2068,63917;0,02530
77,40000;5,15999;2070,72608;0,02535
77,50000;5,16669;2071,97946;0,02540
77,60000;5,17336;2074,11963;0,02544
77,70000;5,17999;2075,55164;0,02549
77,80000;5,18672;2077,18723;0,02553
77,90000;5,19338;2079,08917;0,02558
78,00000;5,19999;2080,72178;0,02563
78,10000;5,20666;2083,27863;0,02567
78,20000;5,21333;2084,49122;0,02572
78,30000;5,21991;2086,49039;0,02576
78,40000;5,22663;2087,85962;0,02581
78,50000;5,23336;2090,26933;0,02586
78,60000;5,24002;2091,90492;0,02591
78,70000;5,24666;2093,19592;0,02595
78,80000;5,25336;2095,43314;0,02600
78,90000;5,26002;2097,29448;0,02604
79,00000;5,26663;2098,27516;0,02609
79,10000;5,27333;2100,66605;0,02614
79,20000;5,28002;2101,86616;0,02618
79,30000;5,28663;2103,35124;0,02623
79,40000;5,29333;2105,27517;0,02628
79,50000;5,30002;2107,19611;0,02632
79,60000;5,30669;2109,39571;0,02637
79,70000;5,31330;2109,97537;0,02642
79,80000;5,31999;2112,28784;0,02647
79,90000;5,32672;2113,68538;0,02651
80,00000;5,33336;2115,85686;0,02656
80,10000;5,34005;2117,28252;0,02661
80,20000;5,34669;2118,04397;0,02665
80,30000;5,35330;2120,84521;0,02670
80,40000;5,35997;2122,67209;0,02675
80,50000;5,36666;2123,98171;0,02679
80,56400;5,37096;1803,70491;0,03208
80,57000;5,37136;1444,14753;0,03917
80,57400;5,37165;1195,71704;0,04422