File: 02_Appendices/Appendix_C_Experimental_Data_and_Analysis Reports/C_1_Materials_Tests/C_1_1_Tensile_tests/C_1_1_1_Quantun_70_30/Specimen_RawData_5.csv
Text Inputs : Specimen label;"1"
Dimension : Length;50,00000;mm
Dimension : Final length;100,00000;mm
Test : Rate 1;2,00000;mm/min
General : Unique Identifier;"{8675EAE9-BB96-432E-B07F-419CDB577808}"

Time;Extension;Load;Strain 1
(sec);(mm);(N);(mm/mm)
0,00000;0,00000;7,03795;0,00010
0,30000;0,00171;7,42963;0,00010
0,60000;0,01709;22,76148;0,00022
0,90000;0,02991;32,65057;0,00032
1,20000;0,04017;41,39909;0,00039
1,50000;0,05043;49,33294;0,00046
1,80000;0,06040;56,87196;0,00053
2,10000;0,06980;63,83129;0,00060
2,40000;0,08034;69,15499;0,00067
2,70000;0,09031;76,61254;0,00074
3,00000;0,10000;82,37804;0,00080
3,30000;0,10997;87,73933;0,00086
3,60000;0,11994;93,44530;0,00090
3,90000;0,13020;94,10331;0,00092
4,20000;0,13960;95,02767;0,00095
4,50000;0,14957;95,61363;0,00096
4,80000;0,15897;96,25598;0,00097
5,10000;0,16980;97,77882;0,00098
5,40000;0,17977;97,92610;0,00099
5,70000;0,18974;98,45878;0,00099
6,00000;0,20085;97,81956;0,00100
6,30000;0,20940;98,57158;0,00100
6,60000;0,21994;98,97893;0,00101
6,90000;0,22963;98,66871;0,00101
7,20000;0,23989;98,66871;0,00102
7,50000;0,25043;99,37374;0,00103
7,80000;0,25983;100,66471;0,00104
8,10000;0,27037;101,32273;0,00104
8,40000;0,27977;100,26363;0,00105
8,70000;0,29003;100,91225;0,00106
9,00000;0,30000;100,71171;0,00106
9,30000;0,30997;101,78961;0,00106
9,60000;0,32023;101,60160;0,00107
9,90000;0,32963;100,14769;0,00107
10,20000;0,34017;101,55147;0,00108
10,50000;0,35014;101,32273;0,00108
10,80000;0,36040;101,17859;0,00108
11,10000;0,36980;102,87378;0,00109
11,40000;0,37977;102,20635;0,00110
11,70000;0,38974;101,94001;0,00110
12,00000;0,39971;102,14056;0,00111
12,30000;0,41054;102,46956;0,00111
12,60000;0,41994;103,87647;0,00112
12,90000;0,43048;102,73277;0,00113
13,20000;0,44017;103,62893;0,00113
13,50000;0,44986;104,75382;0,00114
13,80000;0,46040;104,00808;0,00115
14,10000;0,46980;106,28920;0,00116
14,40000;0,48006;107,09449;0,00118
14,70000;0,48974;109,68584;0,00120
15,00000;0,49943;111,81657;0,00123
15,30000;0,50997;117,16533;0,00126
15,60000;0,51994;122,22894;0,00131
15,90000;0,52991;127,10142;0,00136
16,20000;0,54017;132,64131;0,00141
16,50000;0,54986;137,87413;0,00146
16,80000;0,56011;143,35137;0,00152
17,10000;0,57008;150,89666;0,00157
17,40000;0,58034;157,03817;0,00164
17,70000;0,58946;162,15818;0,00169
18,00000;0,59971;169,87894;0,00176
18,30000;0,60940;175,40004;0,00182
18,60000;0,61994;183,60335;0,00189
18,90000;0,63048;189,75113;0,00196
19,20000;0,64017;196,75747;0,00202
19,50000;0,65100;204,12728;0,00209
19,80000;0,66011;210,36279;0,00215
20,10000;0,67037;217,37542;0,00222
20,40000;0,68034;222,75550;0,00229
20,70000;0,69003;230,03758;0,00236
21,00000;0,70028;236,01302;0,00243
21,30000;0,70940;242,33940;0,00249
21,60000;0,71966;249,55256;0,00256
21,90000;0,72991;255,63766;0,00262
22,20000;0,73989;261,69145;0,00269
22,50000;0,74986;267,93324;0,00275
22,80000;0,75983;274,56670;0,00282
23,10000;0,76980;281,35055;0,00289
23,40000;0,77977;286,41417;0,00295
23,70000;0,79031;292,72176;0,00302
24,00000;0,79943;298,83820;0,00308
24,30000;0,80940;303,67309;0,00315
24,60000;0,81966;311,23403;0,00321
24,90000;0,82906;316,21305;0,00328
25,20000;0,83989;323,28207;0,00335
25,50000;0,84986;329,23557;0,00341
25,80000;0,86068;335,14835;0,00349
26,10000;0,87094;342,86284;0,00355
26,40000;0,88006;346,83915;0,00361
26,70000;0,89031;353,51962;0,00368
27,00000;0,89971;359,14411;0,00374
27,30000;0,91026;365,13836;0,00381
27,60000;0,92023;370,94459;0,00387
27,90000;0,92991;375,63846;0,00393
28,20000;0,93988;382,03693;0,00400
28,50000;0,94986;387,82435;0,00406
28,80000;0,96011;394,15699;0,00413
29,10000;0,97008;399,86297;0,00420
29,40000;0,98034;404,62576;0,00426
29,70000;0,98974;410,71717;0,00432
30,00000;1,00000;417,16574;0,00439
30,30000;1,01026;422,34845;0,00446
30,60000;1,01937;427,65019;0,00452
30,90000;1,02963;433,34677;0,00458
31,20000;1,03903;437,76804;0,00464
31,50000;1,04957;444,01293;0,00471
31,80000;1,06011;450,67775;0,00478
32,10000;1,06980;455,56589;0,00484
32,40000;1,08034;461,98312;0,00491
32,70000;1,09031;467,00286;0,00497
33,00000;1,10028;472,32029;0,00504
33,30000;1,11026;477,47167;0,00510
33,60000;1,12023;483,37188;0,00516
33,90000;1,12991;488,26318;0,00522
34,20000;1,13988;492,67192;0,00528
34,50000;1,15014;498,86042;0,00535
34,80000;1,15983;503,72351;0,00541
35,10000;1,16980;509,80859;0,00548
35,40000;1,18006;514,80327;0,00554
35,70000;1,19031;519,36554;0,00560
36,00000;1,20057;525,13732;0,00567
36,30000;1,20969;530,29493;0,00573
36,60000;1,22023;536,96600;0,00579
36,90000;1,22991;539,74222;0,00585
37,20000;1,24017;545,99340;0,00592
37,50000;1,24957;550,56508;0,00598
37,80000;1,25897;554,78578;0,00603
38,10000;1,26980;562,10863;0,00611
38,40000;1,27977;566,49856;0,00617
38,70000;1,29031;572,17316;0,00623
39,00000;1,30028;576,96104;0,00630
39,30000;1,31054;581,92126;0,00636
39,60000;1,32023;587,08517;0,00642
39,90000;1,32991;591,83231;0,00648
40,20000;1,33988;597,29698;0,00655
40,50000;1,34957;601,54279;0,00661
40,80000;1,36011;606,75992;0,00667
41,10000;1,36980;612,36564;0,00673
41,40000;1,37977;616,68348;0,00679
41,70000;1,38974;622,15445;0,00686
42,00000;1,40000;626,61017;0,00692
42,30000;1,41082;631,91196;0,00699
42,60000;1,41994;637,15414;0,00705
42,90000;1,43020;642,51232;0,00711
43,20000;1,43988;648,05849;0,00718
43,50000;1,44986;650,44928;0,00724
43,80000;1,46040;657,22060;0,00731
44,10000;1,46951;662,49417;0,00736
44,40000;1,47949;665,52735;0,00743
44,70000;1,48974;671,64688;0,00749
45,00000;1,50000;676,29376;0,00755
45,30000;1,51025;682,02796;0,00762
45,60000;1,52023;687,53650;0,00768
45,90000;1,53048;691,36871;0,00775
46,20000;1,54017;695,79622;0,00781
46,50000;1,55043;701,26406;0,00787
46,80000;1,55983;705,70097;0,00794
47,10000;1,56980;711,32234;0,00800
47,40000;1,58006;715,66841;0,00806
47,70000;1,59003;720,51897;0,00813
48,00000;1,60028;724,70834;0,00819
48,30000;1,60940;728,72224;0,00825
48,60000;1,62023;735,10818;0,00831
48,90000;1,63020;739,07822;0,00838
49,20000;1,63988;743,37102;0,00844
49,50000;1,65014;747,76094;0,00850
49,80000;1,65926;751,97853;0,00856
50,10000;1,67008;759,34208;0,00863
50,40000;1,68034;762,79826;0,00869
50,70000;1,68946;766,70251;0,00875
51,00000;1,69943;771,34622;0,00881
51,30000;1,70911;776,11217;0,00887
51,60000;1,72023;782,20358;0,00894
51,90000;1,73020;785,02363;0,00900
52,20000;1,74045;789,73630;0,00906
52,50000;1,75043;794,98794;0,00912
52,80000;1,76040;799,45931;0,00918
53,10000;1,77037;803,13794;0,00924
53,40000;1,78034;806,89806;0,00930
53,70000;1,79031;812,30318;0,00936
54,00000;1,80000;816,00696;0,00942
54,30000;1,81054;819,48191;0,00948
54,60000;1,82023;824,83068;0,00954
54,90000;1,82963;828,30247;0,00959
55,20000;1,84017;833,64816;0,00965
55,50000;1,84986;836,53713;0,00971
55,80000;1,86040;840,31289;0,00977
56,10000;1,87037;846,38549;0,00983
56,40000;1,87949;848,24674;0,00988
56,70000;1,89003;853,62997;0,00995
57,00000;1,89971;856,67251;0,01000
57,30000;1,90997;862,23120;0,01007
57,60000;1,91937;866,08846;0,01012
57,90000;1,92934;868,26617;0,01018
58,20000;1,93960;872,19551;0,01024
58,50000;1,94957;876,98968;0,01030
58,80000;1,96040;881,84020;0,01036
59,10000;1,96980;885,38723;0,01041
59,40000;1,98062;890,13129;0,01048
59,70000;1,99003;893,72527;0,01053
60,00000;2,00028;898,59152;0,01060
60,30000;2,01054;902,11034;0,01066
60,60000;2,01994;906,42190;0,01071
60,90000;2,03077;910,31361;0,01078
61,20000;2,04017;914,76627;0,01083
61,50000;2,05042;918,50124;0,01090
61,80000;2,06040;922,44940;0,01095
62,10000;2,06980;926,75788;0,01101
62,40000;2,08034;930,06361;0,01107
62,70000;2,09003;934,12772;0,01113
63,00000;2,10000;938,64296;0,01119
63,30000;2,10997;941,98948;0,01125
63,60000;2,11994;946,64572;0,01131
63,90000;2,12991;950,49674;0,01137
64,20000;2,13931;952,85615;0,01142
64,50000;2,14957;957,27118;0,01149
64,80000;2,15897;961,29449;0,01154
65,10000;2,16980;967,10389;0,01161
65,40000;2,17977;970,46606;0,01167
65,70000;2,18974;973,82190;0,01173
66,00000;2,20057;978,08335;0,01179
66,30000;2,20968;980,80635;0,01185
66,60000;2,22023;986,81310;0,01191
66,90000;2,22963;990,05308;0,01197
67,20000;2,24017;994,47435;0,01203
67,50000;2,25014;997,20042;0,01209
67,80000;2,25983;1001,84102;0,01215
68,10000;2,27037;1005,72957;0,01222
68,40000;2,27948;1008,98836;0,01227
68,70000;2,29031;1013,98621;0,01233
69,00000;2,30028;1018,07844;0,01240
69,30000;2,31025;1021,52210;0,01246
69,60000;2,32051;1025,37926;0,01252
69,90000;2,32963;1028,76024;0,01258
70,20000;2,33988;1033,10319;0,01264
70,50000;2,35014;1037,40543;0,01270
70,80000;2,36011;1040,97752;0,01276
71,10000;2,36951;1044,08581;0,01282
71,40000;2,37948;1048,08724;0,01288
71,70000;2,39003;1052,82813;0,01294
72,00000;2,39943;1055,90830;0,01300
72,30000;2,41054;1060,57078;0,01307
72,60000;2,42023;1064,10533;0,01313
72,90000;2,43048;1068,84614;0,01320
73,20000;2,44017;1071,86995;0,01326
73,50000;2,44957;1074,98458;0,01331
73,80000;2,46040;1080,06382;0,01338
74,10000;2,46980;1082,73979;0,01343
74,40000;2,48005;1087,22374;0,01350
74,70000;2,48974;1090,05636;0,01356
75,00000;2,49943;1093,66914;0,01361
75,30000;2,50997;1098,75789;0,01368
75,60000;2,51994;1101,70329;0,01374
75,90000;2,53048;1105,90523;0,01381
76,20000;2,54017;1109,67159;0,01387
76,50000;2,54985;1113,04941;0,01393
76,80000;2,56011;1117,51137;0,01399
77,10000;2,57037;1121,45012;0,01406
77,40000;2,58034;1124,57415;0,01412
77,70000;2,58917;1127,18428;0,01417
78,00000;2,59971;1131,26086;0,01424
78,30000;2,60940;1134,88939;0,01430
78,60000;2,61994;1138,97538;0,01437
78,90000;2,63048;1143,25564;0,01444
79,20000;2,64045;1146,94368;0,01449
79,50000;2,65099;1151,18325;0,01456
79,80000;2,66011;1153,71188;0,01462
80,10000;2,67037;1157,60677;0,01468
80,40000;2,68034;1161,39818;0,01474
80,70000;2,69003;1164,64123;0,01480
81,00000;2,70028;1168,38571;0,01487
81,30000;2,70968;1171,59123;0,01493
81,60000;2,71966;1175,98111;0,01499
81,90000;2,72991;1179,94491;0,01505
82,20000;2,74017;1182,93110;0,01512
82,50000;2,75014;1186,39981;0,01518
82,80000;2,76011;1190,14420;0,01524
83,10000;2,77008;1193,69440;0,01531
83,40000;2,77948;1196,86853;0,01536
83,70000;2,79031;1201,40892;0,01543
84,00000;2,79943;1204,04726;0,01549
84,30000;2,80940;1206,65114;0,01555
84,60000;2,81937;1210,58673;0,01561
84,90000;2,82906;1213,57907;0,01568
85,20000;2,84017;1218,44532;0,01575
85,50000;2,85014;1222,45606;0,01581
85,80000;2,86040;1225,45483;0,01588
86,10000;2,87094;1230,11731;0,01594
86,40000;2,88005;1232,58336;0,01600
86,70000;2,89060;1236,47815;0,01607
87,00000;2,89971;1239,15412;0,01613
87,30000;2,90997;1243,17743;0,01619
87,60000;2,92022;1246,91250;0,01626
87,90000;2,92991;1249,59154;0,01632
88,20000;2,94017;1253,27334;0,01639
88,50000;2,94985;1256,37548;0,01645
88,80000;2,96040;1260,87507;0,01652
89,10000;2,97008;1264,05861;0,01658
89,40000;2,98034;1267,98162;0,01664
89,70000;2,98946;1269,79277;0,01670
90,00000;2,99971;1273,80351;0,01677
90,30000;3,00997;1277,42579;0,01684
90,60000;3,01965;1280,33990;0,01690
90,90000;3,02963;1284,41015;0,01697
91,20000;3,03874;1287,02344;0,01702
91,50000;3,04957;1290,85565;0,01710
91,80000;3,06011;1294,35565;0,01716
92,10000;3,07008;1297,29798;0,01723
92,40000;3,08034;1302,03888;0,01730
92,70000;3,09002;1304,35135;0,01736
93,00000;3,10028;1307,56935;0,01743
93,30000;3,11025;1311,47671;0,01749
93,60000;3,12022;1314,17150;0,01755
93,90000;3,12991;1317,84389;0,01762
94,20000;3,13988;1320,33182;0,01768
94,50000;3,15014;1324,43346;0,01776
94,80000;3,16011;1327,93663;0,01782
95,10000;3,17037;1331,03868;0,01789
95,40000;3,18005;1334,47610;0,01796
95,70000;3,19031;1337,33060;0,01802
96,00000;3,20057;1341,12835;0,01809
96,30000;3,20968;1343,81056;0,01815
96,60000;3,21994;1346,68704;0,01822
96,90000;3,22991;1349,87058;0,01829
97,20000;3,24017;1354,34512;0,01835
97,50000;3,24985;1357,19031;0,01842
97,80000;3,25926;1359,66567;0,01849
98,10000;3,26980;1363,90524;0,01856
98,40000;3,27977;1367,11067;0,01862
98,70000;3,29031;1370,23162;0,01869
99,00000;3,30028;1373,02345;0,01876
99,30000;3,30997;1376,43265;0,01883
99,60000;3,32022;1379,90760;0,01889
99,90000;3,32963;1382,67754;0,01896
100,20000;3,33988;1386,12743;0,01903
100,50000;3,34985;1389,62753;0,01909
100,80000;3,36011;1392,85177;0,01916
101,10000;3,36980;1396,00085;0,01923
101,40000;3,38034;1398,56404;0,01930
101,70000;3,39002;1402,07661;0,01937
102,00000;3,40000;1405,00003;0,01943
102,30000;3,41054;1408,70381;0,01951
102,60000;3,41994;1410,78122;0,01957
102,90000;3,43020;1414,61967;0,01964
103,20000;3,44017;1417,85657;0,01971
103,50000;3,44957;1419,85882;0,01977
103,80000;3,46040;1424,44614;0,01985
104,10000;3,46980;1426,16006;0,01991
104,40000;3,47977;1430,02672;0,01998
104,70000;3,48945;1432,48960;0,02005
105,00000;3,49971;1435,14359;0,02012
105,30001;3,51025;1440,08193;0,02019
105,60001;3,52022;1442,85504;0,02026
105,90001;3,53048;1446,04165;0,02033
106,20001;3,54017;1448,69573;0,02040
106,50001;3,55014;1451,64113;0,02047
106,80001;3,56011;1454,64297;0,02054
107,10001;3,57008;1457,30320;0,02061
107,40001;3,58005;1460,22988;0,02068
107,70001;3,58974;1462,83684;0,02075
108,00001;3,60028;1466,72856;0,02082
108,30001;3,60968;1468,91261;0,02089
108,60001;3,61994;1471,92068;0,02096
108,90001;3,63020;1475,80607;0,02103
109,20001;3,63931;1477,56077;0,02109
109,50001;3,65042;1481,19871;0,02117
109,80001;3,65954;1483,39523;0,02123
110,10001;3,67008;1486,38450;0,02131
110,40001;3,68005;1490,16976;0,02138
110,70001;3,68945;1492,27856;0,02145
111,00001;3,69971;1495,20515;0,02152
111,30001;3,70911;1496,60576;0,02158
111,60001;3,71994;1501,20882;0,02166
111,90001;3,72991;1503,59021;0,02173
112,20001;3,74045;1506,69543;0,02180
112,50001;3,75042;1509,09247;0,02187
112,80001;3,76039;1512,06292;0,02194
113,10001;3,77037;1514,74513;0,02202
113,40001;3,78034;1517,96322;0,02209
113,70001;3,79088;1520,90238;0,02216
114,00001;3,80000;1523,27437;0,02223
114,30001;3,81025;1525,88766;0,02230
114,60001;3,82022;1528,51036;0,02237
114,90001;3,82963;1530,92621;0,02244
115,20001;3,84045;1534,50770;0,02252
115,50001;3,84985;1536,91107;0,02259
115,80001;3,86011;1539,07938;0,02266
116,10001;3,87037;1542,24103;0,02273
116,40001;3,87948;1544,74461;0,02280
116,70001;3,89002;1547,97826;0,02288
117,00001;3,89971;1550,15606;0,02295
117,30001;3,90997;1552,92600;0,02302
117,60001;3,91965;1555,26036;0,02310
117,90001;3,92963;1557,11221;0,02316
118,20001;3,93960;1560,16108;0,02324
118,50001;3,94928;1562,68347;0,02331
118,80001;3,96011;1566,01742;0,02339
119,10001;3,96980;1568,46456;0,02346
119,40001;3,98091;1571,34105;0,02354
119,70001;3,99002;1573,98563;0,02360
120,00001;4,00028;1576,15393;0,02368
120,30001;4,01054;1579,13398;0,02376
120,60001;4,01994;1580,65353;0,02383
120,90001;4,03076;1584,33542;0,02391
121,20001;4,03960;1586,52887;0,02398
121,50001;4,05014;1589,39585;0,02405
121,80001;4,06039;1591,75843;0,02413
122,10001;4,06980;1593,98634;0,02420
122,40001;4,08034;1597,22008;0,02428
122,70001;4,09002;1599,18778;0,02435
123,00001;4,10028;1602,20843;0,02443
123,30001;4,11025;1604,56486;0,02450
123,60001;4,12022;1607,25322;0,02458
123,90001;4,13020;1610,26455;0,02465
124,20001;4,13960;1611,60566;0,02472
124,50001;4,14957;1614,27520;0,02480
124,80001;4,15897;1617,07662;0,02487
125,10001;4,16980;1619,26057;0,02495
125,40001;4,17977;1621,50413;0,02503
125,70001;4,19031;1624,49963;0,02511
126,00001;4,20085;1627,39810;0,02519
126,30001;4,20997;1628,55107;0,02526
126,60001;4,22051;1631,32735;0,02533
126,90001;4,22962;1633,64299;0,02541
127,20001;4,23988;1636,35015;0,02549
127,50001;4,25014;1638,92601;0,02556
127,80001;4,25982;1639,54943;0,02563
128,10001;4,27008;1643,38481;0,02571
128,40001;4,27948;1645,36815;0,02578
128,70001;4,29031;1648,22601;0,02587
129,00001;4,30028;1649,99310;0,02595
129,30001;4,31025;1652,68164;0,02602
129,60001;4,32022;1654,74340;0,02611
129,90001;4,32991;1656,99329;0,02618
130,20001;4,34017;1659,49687;0,02626
130,50001;4,35014;1661,75924;0,02634
130,80001;4,35982;1663,72694;0,02641
131,10001;4,36951;1665,66651;0,02649
131,40001;4,37948;1667,78471;0,02657
131,70001;4,38974;1670,78339;0,02665
132,00001;4,39943;1673,15230;0,02673
132,30001;4,41054;1676,05076;0,02681
132,60001;4,42022;1677,10986;0,02689
132,90001;4,43048;1680,53154;0,02697
133,20001;4,44045;1681,94156;0,02704
133,50001;4,44957;1683,69319;0,02712
133,80001;4,46011;1686,38173;0,02720
134,10001;4,46980;1687,17131;0,02728
134,40001;4,48005;1690,28286;0,02736
134,70001;4,49002;1692,03114;0,02744
135,00001;4,49943;1693,76396;0,02751
135,30001;4,51025;1697,15434;0,02760
135,60001;4,52022;1698,76497;0,02768
135,90001;4,53019;1700,82990;0,02776
136,20001;4,53988;1703,00752;0,02784
136,50001;4,54985;1704,25791;0,02792
136,80001;4,56011;1706,80210;0,02800
137,10001;4,57008;1708,35331;0,02808
137,40001;4,58005;1710,76916;0,02816
137,70001;4,58917;1712,16354;0,02824
138,00001;4,59971;1714,55108;0,02833
138,30001;4,60968;1716,31835;0,02841
138,60001;4,62022;1718,59637;0,02849
138,90001;4,63076;1721,20035;0,02858
139,20001;4,64045;1723,48451;0,02865
139,50001;4,65099;1725,66846;0,02874
139,80001;4,66011;1726,18236;0,02881
140,10001;4,67008;1727,94964;0,02890
140,40001;4,68005;1730,26212;0,02898
140,70001;4,69002;1732,26763;0,02906
141,00001;4,70028;1734,18839;0,02914
141,30001;4,70940;1735,99627;0,02922
141,60001;4,71965;1737,55996;0,02931
141,90001;4,72991;1739,87541;0,02939
142,20001;4,74017;1741,67100;0,02947
142,50001;4,75014;1743,65118;0,02956
142,80001;4,75982;1744,83564;0,02963
143,10001;4,76979;1746,19239;0,02972
143,40001;4,77948;1748,02858;0,02980
143,70001;4,79002;1750,43195;0,02989
144,00001;4,79942;1751,88594;0,02997
144,30001;4,80940;1752,83849;0,03004
144,60001;4,81965;1755,65220;0,03014
144,90001;4,82905;1756,91824;0,03022
145,20001;4,84017;1759,78523;0,03031
145,50001;4,85014;1761,14514;0,03039
145,80001;4,86068;1762,51139;0,03048
146,10001;4,87065;1765,19360;0,03057
146,40001;4,88005;1766,09606;0,03064
146,70001;4,89059;1767,44647;0,03073
147,00001;4,89971;1768,39586;0,03081
147,30001;4,91025;1770,76161;0,03091
147,60001;4,92051;1772,81089;0,03099
147,90001;4,93019;1774,29300;0,03107
148,20001;4,94017;1776,18880;0,03116
148,50001;4,94985;1777,61130;0,03124
148,80001;4,96039;1779,66058;0,03134
149,10001;4,96980;1780,58818;0,03142
149,40001;4,98034;1782,22377;0,03151
149,70001;4,98945;1783,49596;0,03159
150,00001;4,99971;1785,14402;0,03167
150,30001;5,01025;1787,17449;0,03177
150,60001;5,01937;1788,55322;0,03185
150,90001;5,03019;1790,96293;0,03194
151,20001;5,03931;1791,03799;0,03202
151,50001;5,04985;1793,17500;0,03211
151,80001;5,05982;1795,22745;0,03220
152,10001;5,06980;1796,18951;0,03229
152,40001;5,08034;1798,07879;0,03238
152,70001;5,09002;1799,60802;0,03246
153,00001;5,10028;1800,55108;0,03255
153,30001;5,11025;1802,17121;0,03264
153,60001;5,11994;1803,12674;0,03273
153,90001;5,13019;1804,95363;0,03282
154,20001;5,14017;1806,67080;0,03291
154,50001;5,15042;1808,52879;0,03300
154,80001;5,16011;1809,90137;0,03309
155,10001;5,17036;1811,28625;0,03318
155,40001;5,18005;1812,22949;0,03327
155,70001;5,19031;1814,37265;0,03336
156,00001;5,20056;1815,84228;0,03345
156,30001;5,20968;1816,53164;0,03353
156,60001;5,21994;1818,51201;0,03363
156,90001;5,22991;1819,94084;0,03372
157,20001;5,24017;1821,41028;0,03381
157,50001;5,24985;1822,95199;0,03390
157,80001;5,25925;1823,48471;0,03398
158,10001;5,26979;1825,19555;0,03408
158,40001;5,27948;1826,06671;0,03417
158,70001;5,29031;1828,60792;0,03426
159,00001;5,29999;1829,11865;0,03435
159,30001;5,30997;1830,22469;0,03444
159,60001;5,32022;1832,33973;0,03454
159,90001;5,32991;1832,53717;0,03463
160,20001;5,33988;1834,68033;0,03472
160,50001;5,34985;1835,51069;0,03481
160,80001;5,36039;1837,15262;0,03490
161,10001;5,37008;1838,86345;0,03499
161,40001;5,38005;1838,97316;0,03509
161,70001;5,38974;1840,32694;0,03518
162,00001;5,39971;1841,85598;0,03527
162,30001;5,41025;1843,60445;0,03537
162,60001;5,41965;1843,76426;0,03546
162,90001;5,43019;1845,40935;0,03556
163,20001;5,44045;1847,43032;0,03565
163,50001;5,44985;1847,89412;0,03574
163,80001;5,46068;1849,64873;0,03584
164,10001;5,46951;1850,04361;0,03593
164,40001;5,47977;1851,45997;0,03602
164,70001;5,48945;1852,19627;0,03611
165,00001;5,49942;1853,09555;0,03621
165,30001;5,51025;1855,20127;0,03631
165,60001;5,52022;1856,47961;0,03641
165,90001;5,53048;1857,79575;0,03651
166,20001;5,54017;1857,99617;0,03660
166,50001;5,55042;1859,03031;0,03670
166,80001;5,56039;1860,42786;0,03679
167,10001;5,57036;1861,24239;0,03688
167,40001;5,58005;1862,65875;0,03698
167,70001;5,59002;1863,04729;0,03707
168,00001;5,60028;1864,37592;0,03717
168,30001;5,60968;1865,24075;0,03726
168,60001;5,61994;1866,55670;0,03736
168,90001;5,62991;1867,47164;0,03746
169,20001;5,63959;1868,07960;0,03755
169,50001;5,65071;1869,12939;0,03765
169,80001;5,65954;1869,37992;0,03774
170,10001;5,66979;1870,99688;0,03784
170,40001;5,68034;1872,04964;0,03794
170,70001;5,68945;1872,84872;0,03803
171,00001;5,69971;1874,08328;0,03813
171,30001;5,70883;1874,19597;0,03822
171,60001;5,71965;1875,85987;0,03832
171,90001;5,72962;1876,44586;0,03842
172,20001;5,74016;1877,71488;0,03853
172,50001;5,75042;1879,11242;0,03863
172,80001;5,76039;1879,63247;0,03872
173,10001;5,77065;1880,17767;0,03882
173,40001;5,78034;1880,84207;0,03892
173,70001;5,79059;1881,85107;0,03902
174,00001;5,79999;1882,47766;0,03911
174,30001;5,80997;1883,34566;0,03921
174,60001;5,82022;1883,80629;0,03931
174,90001;5,82962;1884,63032;0,03941
175,20001;5,84016;1885,99341;0,03951
175,50001;5,84957;1886,21581;0,03961
175,80001;5,86039;1886,83309;0,03971
176,10001;5,87036;1888,65997;0,03981
176,40001;5,87977;1888,52213;0,03991
176,70001;5,89002;1889,94464;0,04001
177,00001;5,89942;1889,59055;0,04010
177,30001;5,90968;1891,40476;0,04021
177,60001;5,91937;1891,11661;0,04030
177,90001;5,92905;1892,11927;0,04040
178,20001;5,93902;1892,67695;0,04050
178,50001;5,94928;1893,56692;0,04060
178,80001;5,96068;1895,57541;0,04072
179,10001;5,97008;1895,46254;0,04082
179,40001;5,98090;1897,08881;0,04092
179,70001;5,99002;1896,91652;0,04102
180,00001;6,00028;1897,34586;0,04112
180,30001;6,01053;1898,62419;0,04122
180,60001;6,01965;1897,63103;0,04132
180,90001;6,03076;1899,36068;0,04143
181,20001;6,03959;1900,27244;0,04153
181,50001;6,05042;1900,89904;0,04163
181,80001;6,06068;1901,44423;0,04174
182,10001;6,06979;1902,23083;0,04183
182,40001;6,08034;1903,08318;0,04194
182,70001;6,09031;1903,86027;0,04205
183,00001;6,10028;1903,79433;0,04215
183,30001;6,10996;1905,07602;0,04225
183,60001;6,11994;1905,60557;0,04236
183,90001;6,13019;1905,85926;0,04246
184,20001;6,13959;1906,33554;0,04256
184,50001;6,14957;1906,79934;0,04266
184,80001;6,15897;1906,39831;0,04276
185,10001;6,17008;1907,65485;0,04288
185,40001;6,18005;1908,67633;0,04299
185,70001;6,19031;1910,16775;0,04309
186,00001;6,20085;1910,41529;0,04320
186,30001;6,20968;1910,15843;0,04329
186,60001;6,22022;1910,32123;0,04340
186,90001;6,22962;1910,94484;0,04350
187,20001;6,23988;1911,46191;0,04361
187,50001;6,24985;1912,19822;0,04372
187,80001;6,25925;1911,28328;0,04382
188,10001;6,27065;1912,69964;0,04394
188,40001;6,27948;1912,52101;0,04403
188,70001;6,29031;1914,11283;0,04415
189,00001;6,30028;1914,71130;0,04425
189,30001;6,31025;1914,78636;0,04436
189,60001;6,32051;1915,60425;0,04447
189,90001;6,32962;1915,02459;0,04457
190,20001;6,33988;1916,22153;0,04468
190,50001;6,34985;1915,72960;0,04479
190,80001;6,36011;1917,19290;0,04490
191,10001;6,36951;1917,28380;0,04500
191,40001;6,37920;1917,51253;0,04510
191,70001;6,38974;1917,93870;0,04522
192,00001;6,39971;1918,29894;0,04533
192,30001;6,41053;1919,77173;0,04544
192,60001;6,41994;1918,93205;0,04555
192,90001;6,43019;1919,70598;0,04566
193,20001;6,44016;1919,69648;0,04576
193,50001;6,44957;1920,34505;0,04587
193,80001;6,46011;1920,58329;0,04598
194,10001;6,46922;1919,66835;0,04608
194,40001;6,48005;1922,04658;0,04620
194,70001;6,49002;1922,21887;0,04631
195,00001;6,49971;1921,54832;0,04641
195,30001;6,51025;1922,94270;0,04653
195,60001;6,51994;1922,52919;0,04663
195,90001;6,53019;1923,21222;0,04675
196,20001;6,54045;1923,75742;0,04686
196,50001;6,54985;1923,55998;0,04696
196,80001;6,55982;1923,98001;0,04708
197,10001;6,57008;1923,78256;0,04719
197,40001;6,58005;1924,43430;0,04730
197,70001;6,58917;1923,50373;0,04740
198,00001;6,59999;1925,79739;0,04752
198,30001;6,60968;1925,08288;0,04763
198,60001;6,62022;1925,60609;0,04775
198,90001;6,63048;1926,12316;0,04786
199,20001;6,64045;1925,94454;0,04797
199,50001;6,65070;1926,80620;0,04808
199,80001;6,65982;1926,13564;0,04818
200,10001;6,67036;1927,09137;0,04830
200,40001;6,68033;1927,20424;0,04841
200,70001;6,69002;1927,09770;0,04852
201,00001;6,70028;1927,81519;0,04864
201,30001;6,70968;1926,72480;0,04874
201,60001;6,72022;1927,49873;0,04886
201,90001;6,72991;1927,64290;0,04897
202,20001;6,73988;1927,51437;0,04908
202,50001;6,74985;1927,96569;0,04919
202,80001;6,75982;1928,07838;0,04930
203,10001;6,76979;1927,94055;0,04942
203,40001;6,77948;1927,83717;0,04953
203,70001;6,79002;1928,14432;0,04964
204,00001;6,79971;1929,20957;0,04976
204,30001;6,80939;1928,28532;0,04987
204,60001;6,81965;1928,34474;0,04998
204,90001;6,82905;1928,19443;0,05009
205,20001;6,84016;1929,70149;0,05021
205,46401;6,84843;1928,96519;0,05031
205,76401;6,85925;1929,89893;0,05043
206,06401;6,86951;1930,02746;0,05054
206,36401;6,87805;1929,00281;0,05064
206,66401;6,88917;1929,19075;0,05076
206,96401;6,89828;1928,95588;0,05087
207,26401;6,90939;1930,10271;0,05100
207,56401;6,91908;1930,26550;0,05111
207,86401;6,92848;1929,57316;0,05122
208,16401;6,93902;1931,04260;0,05134
208,46401;6,94871;1930,51938;0,05145
208,76401;6,95925;1931,19626;0,05157
209,06401;6,96865;1930,07439;0,05168
209,36401;6,97862;1931,30281;0,05179
209,66401;6,98860;1931,22756;0,05191
209,96401;6,99885;1931,15231;0,05203
210,26401;7,00911;1931,01764;0,05215
210,56401;7,01851;1930,56017;0,05226
210,86401;7,02905;1931,13983;0,05238
211,16401;7,03817;1930,50057;0,05249
211,46401;7,04843;1931,35608;0,05261
211,76401;7,05868;1931,64740;0,05273
212,06401;7,06837;1931,33727;0,05284
212,36401;7,07919;1931,88861;0,05296
212,66401;7,08860;1931,87296;0,05307
212,96401;7,09914;1931,65373;0,05319
213,26401;7,10911;1931,50006;0,05331
213,56401;7,11851;1930,72613;0,05342
213,86401;7,12905;1931,16181;0,05354
214,16401;7,13874;1930,73563;0,05366
214,46401;7,14928;1931,54085;0,05378
214,76401;7,15840;1931,11785;0,05389
215,06401;7,16837;1930,38154;0,05400
215,36401;7,17891;1931,93574;0,05413
215,66401;7,18888;1931,76325;0,05425
215,96401;7,19914;1932,37755;0,05437
216,26401;7,20854;1931,39352;0,05448
216,56401;7,21880;1932,00149;0,05460
216,86401;7,22877;1931,52837;0,05472
217,16401;7,23902;1932,10803;0,05484
217,46401;7,24871;1932,22091;0,05496
217,76401;7,25811;1931,04260;0,05507
218,06401;7,26865;1932,15180;0,05519
218,36401;7,27805;1931,73196;0,05531
218,66401;7,28888;1931,39669;0,05543
218,96401;7,29914;1931,78207;0,05556
219,26401;7,30882;1931,88246;0,05567
219,56401;7,31908;1931,96069;0,05580
219,86401;7,32877;1931,14299;0,05591
220,16401;7,33902;1931,61611;0,05603
220,46401;7,34871;1930,95170;0,05615
220,76401;7,35868;1930,71999;0,05626
221,06401;7,36894;1931,43431;0,05639
221,36401;7,37834;1931,10537;0,05650
221,66401;7,38831;1930,24371;0,05662
221,96401;7,39857;1930,83901;0,05674
222,26401;7,40882;1930,91109;0,05686
222,56401;7,41851;1930,82020;0,05698
222,86401;7,42934;1931,59729;0,05711
223,16401;7,43931;1931,08339;0,05723
223,46401;7,44842;1930,71999;0,05735
223,76401;7,45925;1931,26835;0,05747
224,06401;7,46837;1930,23104;0,05759
224,36401;7,47834;1930,13716;0,05771
224,66401;7,48831;1929,17194;0,05782
224,96401;7,49800;1929,38503;0,05794
225,26401;7,50911;1931,27133;0,05808
225,56401;7,51908;1930,53186;0,05820
225,86401;7,52962;1930,55384;0,05832
226,16401;7,53931;1931,13983;0,05844
226,46401;7,54899;1929,90843;0,05856
226,76401;7,55925;1930,39719;0,05869
227,06401;7,56865;1930,41284;0,05880
227,36401;7,57891;1930,30946;0,05893
227,66401;7,58860;1929,36007;0,05904
227,96401;7,59885;1930,03360;0,05917
228,26401;7,60825;1929,44147;0,05928
228,56401;7,61880;1929,23788;0,05941
228,86401;7,62905;1929,92408;0,05953
229,16401;7,63845;1928,51406;0,05965
229,46401;7,64928;1929,49157;0,05978
229,76401;7,65840;1928,96836;0,05990
230,06401;7,66865;1929,22205;0,06002
230,36401;7,67891;1929,05925;0,06014
230,66401;7,68803;1927,09137;0,06026
230,96401;7,69828;1928,37603;0,06038
231,26401;7,70768;1927,91559;0,06050
231,56401;7,71823;1927,18543;0,06062
231,86401;7,72848;1927,76825;0,06075
232,16401;7,73874;1928,39485;0,06087
232,46401;7,74956;1928,33226;0,06100
232,76401;7,75897;1927,53952;0,06112
233,06401;7,76894;1927,67736;0,06125
233,36401;7,77919;1927,37971;0,06137
233,66401;7,78917;1927,13216;0,06149
233,96401;7,79885;1926,66836;0,06161
234,26401;7,80854;1925,66253;0,06173
234,56401;7,81908;1926,36140;0,06186
234,86401;7,82848;1926,14831;0,06197
235,16401;7,83874;1926,37388;0,06210
235,46401;7,84871;1925,98850;0,06222
235,76401;7,85897;1925,81918;0,06235
236,06401;7,86922;1925,64689;0,06247
236,36401;7,87834;1925,41815;0,06259
236,66401;7,88888;1925,61876;0,06272
236,96401;7,89828;1923,97051;0,06284
237,26401;7,90854;1925,17694;0,06296
237,56401;7,91822;1923,98001;0,06308
237,86401;7,92763;1923,48789;0,06320
238,16401;7,93845;1924,82900;0,06333
238,46401;7,94785;1923,24035;0,06345
238,76401;7,95897;1924,49372;0,06358
239,06401;7,96894;1923,99248;0,06371
239,36401;7,97948;1924,08953;0,06384
239,66401;7,98859;1923,23104;0,06395
239,96401;7,99857;1922,79238;0,06408
240,26401;8,00882;1923,25301;0,06420
240,56401;8,01851;1922,54167;0,06433
240,86401;8,02934;1922,84882;0,06446
241,16401;8,03817;1922,46325;0,06457
241,46401;8,04899;1923,30312;0,06470
241,76401;8,05925;1923,39718;0,06483
242,06401;8,06894;1922,55732;0,06496
242,36401;8,07948;1922,99597;0,06509
242,66401;8,08860;1921,79587;0,06520
242,96401;8,09914;1922,11233;0,06533
243,26401;8,10882;1921,80853;0,06546
243,56401;8,11879;1920,82450;0,06558
243,86401;8,12905;1921,10352;0,06571
244,16401;8,13817;1921,15661;0,06583
244,46401;8,14842;1920,48606;0,06596
244,76401;8,15811;1920,50803;0,06608
245,06401;8,16837;1919,93788;0,06621
245,36401;8,17891;1920,90925;0,06634
245,66401;8,18916;1920,51753;0,06646
245,96401;8,19942;1920,79954;0,06659
246,26401;8,20882;1919,03543;0,06671
246,56401;8,21879;1919,86579;0,06684
246,86401;8,22820;1919,79054;0,06696
247,16401;8,23845;1918,85680;0,06709
247,46401;8,24871;1919,20772;0,06722
247,76401;8,25840;1918,80669;0,06734
248,06401;8,26922;1919,28595;0,06747
248,36401;8,27834;1917,13329;0,06759
248,66401;8,28945;1918,66569;0,06772
248,96401;8,29914;1918,07337;0,06785
249,26401;8,30825;1916,93287;0,06797
249,56401;8,31936;1917,50620;0,06811
249,86401;8,32820;1916,30609;0,06822
250,16401;8,33874;1916,87327;0,06835
250,46401;8,34871;1916,75741;0,06848
250,76401;8,35839;1916,86396;0,06861
251,06401;8,36865;1917,03308;0,06874
251,36401;8,37805;1915,60742;0,06886
251,66401;8,38888;1916,41264;0,06899
251,96401;8,39857;1915,73594;0,06912
252,26401;8,40939;1916,14944;0,06925
252,56401;8,41879;1915,98646;0,06937
252,86401;8,42905;1915,88625;0,06950
253,16401;8,43931;1915,64504;0,06963
253,46401;8,44842;1914,11283;0,06975
253,76401;8,45925;1914,59842;0,06989
254,06401;8,46865;1914,56713;0,07001
254,36401;8,47891;1914,60792;0,07014
254,66401;8,48859;1914,49821;0,07026
254,96401;8,49800;1913,18840;0,07039
255,26401;8,50911;1913,57695;0,07053
255,56401;8,51851;1913,37336;0,07065
255,86401;8,52905;1913,10067;0,07078
256,16401;8,53874;1913,17592;0,07090
256,46401;8,54814;1912,22019;0,07103
256,76401;8,55868;1912,81550;0,07116
257,06401;8,56865;1911,85046;0,07129
257,36401;8,57862;1911,59341;0,07142
257,66401;8,58774;1910,80067;0,07154
257,96401;8,59857;1910,74423;0,07167
258,26401;8,60854;1909,92020;0,07180
258,56401;8,61879;1911,49320;0,07193
258,86401;8,62933;1911,59975;0,07206
259,16401;8,63874;1909,98297;0,07219
259,46401;8,64985;1910,99178;0,07232
259,76401;8,65896;1910,32439;0,07244
260,06401;8,66922;1910,12397;0,07258
260,36401;8,67919;1909,34055;0,07270
260,66401;8,68888;1909,22152;0,07283
260,96401;8,69942;1909,38748;0,07296
261,26401;8,70882;1909,39698;0,07308
261,56401;8,71851;1908,65751;0,07321
261,86401;8,72877;1908,18124;0,07334
262,16401;8,73845;1907,10947;0,07346
262,46401;8,74899;1907,65783;0,07359
262,76401;8,75840;1906,78686;0,07372
263,06401;8,76837;1905,47071;0,07385
263,36401;8,77834;1906,62071;0,07398
263,66401;8,78888;1906,49219;0,07411
263,96401;8,79828;1906,54863;0,07424
264,26401;8,80797;1904,49934;0,07436
264,56401;8,81822;1905,71826;0,07449
264,86401;8,82763;1904,79700;0,07461
265,16401;8,83874;1905,50834;0,07475
265,46401;8,84842;1905,28911;0,07488
265,76401;8,85896;1904,40845;0,07501
266,06401;8,86922;1904,61855;0,07514
266,36401;8,87834;1903,19587;0,07526
266,66401;8,88945;1903,96681;0,07540
266,96401;8,89857;1904,19238;0,07552
267,26401;8,90911;1904,00127;0,07566
267,56401;8,91908;1903,00476;0,07579
267,86401;8,92905;1902,96713;0,07591
268,16401;8,93931;1903,49352;0,07605
268,46401;8,94842;1902,24648;0,07617
268,76401;8,95896;1902,67581;0,07630
269,06401;8,96894;1902,27162;0,07643
269,36401;8,97919;1902,08349;0,07656
269,66401;8,98859;1901,45690;0,07669
269,96401;8,99857;1901,36600;0,07682
270,26401;9,00882;1901,40363;0,07695
270,56401;9,01879;1900,99310;0,07708
270,86401;9,02905;1901,15608;0,07722
271,16401;9,03817;1899,99361;0,07734
271,46401;9,04785;1899,66448;0,07746
271,76401;9,05868;1900,23165;0,07760
272,06401;9,06837;1899,74289;0,07773
272,36401;9,07891;1900,36949;0,07787
272,66401;9,08859;1900,05619;0,07799
272,96401;9,09913;1899,72725;0,07813
273,26401;9,10911;1899,66131;0,07826
273,56401;9,11879;1898,54596;0,07838
273,86401;9,12905;1898,69627;0,07851
274,16401;9,13817;1897,15158;0,07864
274,46401;9,14899;1897,91303;0,07878
274,76401;9,15868;1897,66232;0,07890
275,06401;9,16837;1897,41161;0,07903
275,36401;9,17891;1897,31438;0,07917
275,66401;9,18888;1897,34269;0,07929
275,96401;9,19942;1897,46488;0,07943
276,26401;9,20882;1897,40844;0,07956
276,56401;9,21879;1896,43092;0,07969
276,86401;9,22877;1896,95098;0,07982
277,16401;9,23902;1896,33369;0,07995
277,46401;9,24899;1896,31172;0,08008
277,76401;9,25782;1894,99576;0,08020
278,06401;9,26808;1894,35650;0,08034
278,36401;9,27805;1894,77317;0,08047
278,66401;9,28916;1895,96079;0,08060
278,96401;9,29942;1895,03022;0,08074
279,26401;9,30882;1894,92684;0,08087
279,56401;9,31908;1894,65731;0,08100
279,86401;9,32848;1893,55128;0,08112
280,16401;9,33902;1894,10895;0,08126
280,46401;9,34871;1893,36631;0,08139
280,76401;9,35839;1893,28808;0,08151
281,06401;9,36865;1893,33502;0,08165
281,36401;9,37805;1892,04402;0,08177
281,66401;9,38859;1892,48268;0,08191
281,96401;9,39856;1892,21334;0,08204
282,26401;9,40882;1892,06917;0,08217
282,56401;9,41879;1892,64566;0,08231
282,86401;9,42933;1892,20067;0,08244
283,16401;9,43931;1892,36049;0,08257
283,46401;9,44814;1890,07316;0,08269
283,76401;9,45925;1891,70558;0,08284
284,06401;9,46837;1890,90967;0,08296
284,36401;9,47834;1890,31120;0,08309
284,66401;9,48831;1889,65630;0,08322
284,96401;9,49771;1889,73155;0,08335
285,26401;9,50911;1890,69659;0,08350
285,56401;9,51936;1890,80946;0,08363
285,86401;9,52962;1890,41458;0,08377
286,16401;9,53930;1891,06632;0,08390
286,46401;9,54928;1890,17653;0,08402
286,76401;9,55925;1889,73788;0,08416
287,06401;9,56865;1889,61253;0,08428
287,36401;9,57891;1888,44372;0,08442
287,66401;9,58859;1889,34933;0,08455
287,96401;9,59885;1889,16754;0,08468
288,26401;9,60854;1888,22448;0,08481
288,56401;9,61879;1888,47501;0,08495
288,86401;9,62905;1888,47203;0,08508
289,16401;9,63845;1888,35282;0,08521
289,46401;9,64928;1888,23380;0,08534
289,76401;9,65839;1886,39760;0,08547
290,06401;9,66865;1886,46652;0,08560
290,36401;9,67891;1886,93963;0,08574
290,66401;9,68802;1885,86805;0,08586
290,96401;9,69828;1886,30987;0,08600
291,26401;9,70740;1885,57673;0,08612
291,56401;9,71822;1885,19433;0,08626
291,86401;9,72876;1886,14689;0,08639
292,16401;9,73902;1885,57971;0,08653
292,46401;9,74899;1886,00272;0,08666
292,76401;9,75896;1885,05333;0,08679
293,06401;9,76922;1884,85906;0,08692
293,36401;9,77891;1884,93747;0,08705
293,66401;9,78888;1885,07531;0,08718
293,96401;9,79885;1884,07581;0,08731
294,26401;9,80882;1883,63083;0,08744
294,56401;9,81936;1883,94412;0,08758
294,86401;9,82848;1883,56191;0,08771
295,16401;9,83931;1883,74352;0,08784
295,46401;9,84871;1882,98523;0,08797
295,76401;9,85896;1883,50864;0,08811
296,06401;9,86922;1882,73471;0,08824
296,36401;9,87834;1882,25843;0,08836
296,66401;9,88888;1882,55291;0,08851
296,96401;9,89799;1881,07714;0,08863
297,26401;9,90854;1882,29904;0,08877
297,56401;9,91851;1882,18933;0,08890
297,86401;9,92819;1881,35915;0,08902
298,16401;9,93845;1881,02387;0,08916
298,46401;9,94814;1879,79229;0,08929
298,76401;9,95925;1881,23062;0,08943
299,06401;9,96865;1880,16202;0,08956
299,36401;9,97919;1880,57888;0,08969
299,66401;9,98888;1879,88635;0,08982
299,96401;9,99828;1879,68891;0,08995
300,26401;10,00854;1879,69524;0,09009
300,56401;10,01851;1879,15936;0,09022
300,86401;10,02933;1880,18717;0,09035
301,16401;10,03874;1879,41939;0,09048
301,46401;10,04899;1879,71406;0,09062
301,76401;10,05925;1879,38195;0,09075
302,06401;10,06865;1878,74585;0,09088
302,36401;10,07919;1879,33799;0,09102
302,66401;10,08859;1879,02469;0,09114
302,96401;10,09885;1878,86488;0,09128
303,26401;10,10882;1878,76467;0,09141
303,56401;10,11851;1878,16918;0,09154
303,86401;10,12905;1878,62664;0,09168
304,16401;10,13845;1876,94412;0,09180
304,46401;10,14842;1877,53309;0,09194
304,76401;10,15782;1876,52428;0,09206
305,06401;10,16837;1875,86620;0,09220
305,36401;10,17891;1877,42654;0,09234
305,66401;10,18888;1877,74301;0,09247
305,96401;10,19942;1876,47715;0,09261
306,26401;10,20854;1876,39892;0,09274
306,56401;10,21879;1876,58053;0,09287
306,86401;10,22848;1876,31119;0,09300
307,16401;10,23874;1875,76897;0,09313
307,46401;10,24899;1875,53409;0,09327
307,76401;10,25811;1874,72869;0,09339
308,06401;10,26922;1875,29903;0,09353
308,36401;10,27834;1873,25925;0,09366
308,66401;10,28888;1875,29270;0,09380
308,96401;10,29885;1874,55006;0,09393
309,26401;10,30854;1873,29669;0,09406
309,56401;10,31908;1874,87286;0,09420
309,86401;10,32819;1873,46600;0,09432
310,16401;10,33873;1873,98922;0,09446
310,46401;10,34899;1873,78246;0,09460
310,76401;10,35839;1873,28421;0,09473
311,06401;10,36865;1873,14637;0,09486
311,36401;10,37834;1872,99903;0,09499
311,66401;10,38859;1872,81426;0,09512
311,96401;10,39828;1873,46600;0,09526
312,26401;10,40939;1873,11191;0,09540
312,56401;10,41908;1872,93962;0,09553
312,86401;10,42933;1872,54157;0,09567
313,16401;10,43930;1873,16835;0,09580
313,46401;10,44871;1872,86120;0,09593
313,76401;10,45953;1872,28154;0,09607
314,06401;10,46865;1871,56703;0,09620
314,36401;10,47891;1872,25342;0,09633
314,66401;10,48859;1871,82408;0,09646
314,96401;10,49828;1871,11907;0,09659
315,26401;10,50882;1871,74249;0,09673
315,56401;10,51822;1870,08493;0,09686
315,86402;10,52876;1871,45118;0,09700
316,16402;10,53902;1871,53257;0,09713
316,46402;10,54871;1870,85588;0,09727
316,76402;10,55896;1870,98123;0,09740
317,06402;10,56865;1870,96540;0,09753
317,36402;10,57919;1870,69923;0,09767
317,66402;10,58802;1868,78145;0,09780
317,96402;10,59856;1869,07295;0,09793
318,26402;10,60825;1869,70904;0,09806
318,56402;10,61851;1868,75015;0,09820
318,86402;10,62933;1870,22593;0,09834
319,16402;10,63902;1869,09176;0,09847
319,46402;10,64985;1869,71202;0,09861
319,76402;10,65896;1868,62163;0,09874
320,06402;10,66893;1868,98205;0,09887
320,36402;10,67919;1867,98554;0,09901
320,66402;10,68888;1867,97623;0,09913
320,96402;10,69913;1868,01385;0,09927
321,26402;10,70825;1866,86702;0,09940
321,56402;10,71879;1867,20230;0,09954
321,86402;10,72876;1867,32449;0,09967
322,16402;10,73845;1866,59116;0,09980
322,46402;10,74899;1867,48430;0,09994
322,76402;10,75839;1866,11488;0,10006
323,06402;10,76865;1866,54739;0,10020
323,36402;10,77862;1866,44718;0,10033
323,66402;10,78888;1866,74483;0,10047
323,96402;10,79856;1865,72019;0,10060
324,26402;10,80797;1864,99003;0,10072
324,56402;10,81822;1864,65792;0,10086
324,86402;10,82734;1863,52357;0,10099
325,16402;10,83845;1865,09658;0,10113
325,46402;10,84871;1865,30966;0,10127
325,76402;10,85953;1865,30016;0,10141
326,06402;10,86979;1865,11539;0,10155
326,36402;10,87862;1864,55771;0,10167
326,66402;10,88945;1864,69555;0,10181
326,96402;10,89828;1863,45149;0,10193
327,26402;10,90910;1863,86518;0,10207
327,56402;10,91908;1863,40772;0,10221
327,86402;10,92819;1862,86252;0,10233
328,16402;10,93902;1863,72735;0,10247
328,46402;10,94842;1862,96906;0,10260
328,76402;10,95953;1862,43318;0,10274
329,06402;10,96893;1863,12888;0,10287
329,36402;10,97919;1863,09423;0,10301
329,66402;10,98859;1862,63062;0,10314
329,96402;10,99856;1861,89413;0,10327
330,26402;11,00910;1862,12305;0,10341
330,56402;11,01822;1861,63411;0,10354
330,86402;11,02848;1861,72817;0,10368
331,16402;11,03759;1860,97305;0,10380
331,46402;11,04785;1860,79126;0,10394
331,76402;11,05925;1861,79075;0,10409
332,06402;11,06893;1861,94740;0,10422
332,36402;11,07948;1861,48379;0,10436
332,66402;11,08916;1860,93859;0,10449
332,96402;11,09913;1861,09524;0,10462
333,26402;11,10882;1861,25506;0,10475
333,56402;11,11851;1859,45332;0,10488
333,86402;11,12905;1860,34627;0,10502
334,16402;11,13845;1859,22775;0,10515
334,46402;11,14899;1860,02348;0,10529
334,76402;11,15839;1859,06477;0,10542
335,06402;11,16865;1858,95506;0,10555
335,36402;11,17919;1858,90179;0,10569
335,66402;11,18916;1858,62612;0,10582
335,96402;11,19913;1859,78860;0,10596
336,26402;11,20854;1858,72633;0,10609
336,56402;11,21879;1859,04913;0,10623
336,86402;11,22876;1858,94258;0,10636
337,16402;11,23902;1858,53522;0,10650
337,46402;11,24842;1857,84586;0,10663
337,76402;11,25782;1856,70219;0,10676
338,06402;11,26865;1858,35976;0,10690
338,36402;11,27833;1857,54504;0,10703
338,66402;11,28888;1858,13103;0,10717
338,96402;11,29942;1858,09657;0,10731
339,26402;11,30910;1856,67071;0,10744
339,56402;11,31908;1856,86201;0,10758
339,86402;11,32848;1856,71151;0,10771
340,16402;11,33845;1856,72101;0,10784
340,46402;11,34842;1856,24156;0,10797
340,76402;11,35868;1856,71784;0,10811
341,06402;11,36893;1856,65824;0,10825
341,36402;11,37862;1856,43267;0,10838
341,66402;11,38859;1856,42950;0,10851
341,96402;11,39856;1856,30415;0,10865
342,26402;11,40911;1855,87183;0,10879
342,56402;11,41879;1855,94074;0,10892
342,86402;11,42876;1855,32663;0,10905
343,16402;11,43873;1855,88114;0,10919
343,46402;11,44842;1854,22674;0,10932
343,76402;11,45925;1856,12552;0,10946
344,06402;11,46808;1855,01315;0,10959
344,36402;11,47805;1854,44914;0,10972
344,66402;11,48859;1854,73114;0,10986
344,96402;11,49771;1853,57183;0,10998
345,26402;11,50910;1854,37407;0,11014
345,56402;11,51936;1854,76877;0,11027
345,86402;11,52962;1854,22357;0,11041
346,16402;11,53930;1854,22674;0,11054
346,46402;11,54899;1854,58083;0,11067
346,76402;11,55896;1854,16099;0,11081
347,06402;11,56865;1853,21458;0,11094
347,36402;11,57890;1853,89146;0,11107
347,66402;11,58888;1853,24289;0,11121
347,96402;11,59913;1853,48727;0,11135
348,26402;11,60853;1852,26519;0,11148
348,56402;11,61879;1852,63176;0,11161
348,86402;11,62905;1853,23656;0,11175
349,16402;11,63845;1852,83553;0,11188
349,46402;11,64928;1852,92009;0,11202
349,76402;11,65782;1851,30946;0,11214
350,06402;11,66865;1852,27469;0,11228
350,36402;11,67890;1852,48144;0,11242
350,66402;11,68831;1851,92991;0,11255
350,96402;11,69828;1851,43482;0,11268
351,26402;11,70768;1850,21274;0,11281
351,56402;11,71879;1851,04311;0,11296
351,86402;11,72876;1851,40353;0,11309
352,16402;11,73902;1850,15332;0,11323
352,46402;11,74927;1851,02429;0,11336
352,76402;11,75896;1849,96519;0,11349
353,06402;11,76922;1850,28166;0,11363
353,36402;11,77890;1850,00282;0,11376
353,66402;11,78888;1850,05926;0,11390
353,96402;11,79885;1850,40087;0,11403
354,26402;11,80910;1850,57633;0,11416
354,56402;11,81936;1849,11620;0,11430
354,86402;11,82848;1849,78675;0,11443
355,16402;11,83902;1850,62010;0,11457
355,46402;11,84899;1850,14382;0,11470
355,76402;11,85925;1849,15997;0,11484
356,06402;11,86922;1848,94688;0,11498
356,36402;11,87805;1847,90660;0,11510
356,66402;11,88887;1849,26335;0,11524
356,96402;11,89828;1848,11037;0,11537
357,26402;11,90882;1849,18810;0,11551
357,56402;11,91850;1848,38921;0,11565
357,86402;11,92762;1847,09821;0,11577
358,16402;11,93845;1847,51488;0,11591
358,46402;11,94785;1847,31744;0,11604
358,76402;11,95896;1848,04760;0,11618
359,06402;11,96865;1847,95670;0,11632
359,36402;11,97890;1848,21989;0,11645
359,66402;11,98888;1847,53370;0,11659
359,96402;11,99885;1847,27367;0,11672
360,26402;12,00910;1846,69718;0,11686
360,56402;12,01252;1841,72429;0,11693
360,86402;12,02506;1844,01497;0,11708
361,16402;12,03816;1846,42766;0,11725
361,46402;12,04927;1846,65639;0,11739
361,76402;12,05896;1847,18594;0,11753
362,06402;12,06836;1846,14249;0,11766
362,36402;12,07919;1846,85066;0,11780
362,66402;12,08831;1845,44995;0,11793
362,96402;12,09885;1846,64689;0,11807
363,26402;12,10882;1845,98267;0,11820
363,56402;12,11851;1845,32162;0,11833
363,86402;12,12905;1846,33043;0,11848
364,16402;12,13816;1844,65405;0,11860
364,46402;12,14842;1846,26468;0,11874
364,76402;12,15782;1844,86099;0,11887
365,06402;12,16836;1844,62275;0,11901
365,36402;12,17890;1845,47827;0,11915
365,66402;12,18859;1845,00199;0,11928
365,96402;12,19942;1845,08655;0,11942
366,26402;12,20853;1844,63523;0,11956
366,56402;12,21907;1844,75444;0,11969
366,86402;12,22848;1844,08389;0,11983
367,16402;12,23902;1844,63840;0,11996
367,46402;12,24899;1843,97101;0,12010
367,76402;12,25839;1844,00547;0,12023
368,06402;12,26922;1844,10885;0,12036
368,36402;12,27833;1843,33175;0,12050
368,66402;12,28888;1844,35956;0,12064
368,96402;12,29885;1843,76109;0,12077
369,26402;12,30825;1842,86814;0,12090
369,56402;12,31936;1843,80803;0,12105
369,86402;12,32848;1842,23205;0,12117
370,16402;12,33873;1843,20956;0,12131
370,46402;12,34870;1843,03410;0,12145
370,76402;12,35868;1843,28165;0,12158
371,06402;12,36836;1842,80854;0,12172
371,36402;12,37776;1842,47959;0,12184
371,66402;12,38859;1843,43513;0,12199
371,96402;12,39828;1842,90875;0,12212
372,26402;12,40939;1843,06242;0,12226
372,56402;12,41964;1843,73595;0,12241
372,86402;12,42962;1843,41017;0,12254
373,16402;12,43930;1842,86181;0,12268
373,46402;12,44813;1841,60843;0,12280
373,76402;12,45925;1842,93073;0,12294
374,06402;12,46865;1841,99698;0,12307
374,36402;12,47890;1842,23820;0,12321
374,66402;12,48859;1842,26017;0,12334
374,96402;12,49771;1841,21039;0,12347
375,26402;12,50882;1842,75527;0,12362
375,56402;12,51850;1841,92173;0,12375
375,86402;12,52905;1842,53287;0,12389
376,16402;12,53902;1841,68667;0,12403
376,46402;12,54842;1841,79638;0,12416
376,76402;12,55868;1842,29463;0,12430
377,06402;12,56865;1841,60527;0,12443
377,36402;12,57890;1841,21355;0,12457
377,66402;12,58745;1840,72796;0,12469
377,96402;12,59828;1841,00363;0,12483
378,26402;12,60796;1840,40200;0,12497
378,56402;12,61822;1840,57448;0,12510
378,86402;12,62962;1841,71498;0,12525
379,16402;12,63930;1841,30762;0,12539
379,46402;12,65013;1841,39535;0,12553
379,76402;12,65896;1840,42081;0,12565
380,06402;12,66922;1840,72163;0,12579
380,36402;12,67919;1840,77490;0,12593
380,66402;12,68859;1839,74095;0,12605
380,96402;12,69913;1840,08237;0,12620
381,26402;12,70825;1840,34873;0,12632
381,56402;12,71850;1839,92889;0,12646
381,86402;12,72876;1840,12633;0,12660
382,16402;12,73873;1839,92255;0,12674
382,46402;12,74927;1840,10752;0,12687
382,76402;12,75868;1839,34923;0,12700
383,06402;12,76865;1839,66253;0,12714
383,36402;12,77862;1839,21456;0,12727
383,66402;12,78916;1838,75393;0,12741
383,96402;12,79856;1838,54084;0,12754
384,26402;12,80739;1837,38135;0,12767
384,56402;12,81822;1837,64473;0,12781
384,86402;12,82762;1837,27480;0,12794
385,16402;12,83873;1838,88860;0,12808
385,46402;12,84870;1838,19290;0,12822
385,76402;12,85924;1838,08021;0,12836
386,06402;12,86979;1838,48441;0,12850
386,36402;12,87833;1837,08370;0,12862
386,66402;12,88944;1837,42214;0,12876
386,96402;12,89828;1836,83932;0,12888
387,26402;12,90853;1837,69166;0,12902
387,56402;12,91907;1837,43462;0,12916
387,86402;12,92848;1836,51038;0,12929
388,16402;12,93930;1837,25916;0,12944
388,46402;12,94842;1835,71763;0,12956
388,76402;12,95925;1836,75792;0,12970
389,06402;12,96922;1836,85813;0,12984
389,36402;12,97919;1836,31927;0,12998
389,66402;12,98859;1836,20956;0,13011
389,96402;12,99856;1836,06222;0,13024
390,26402;13,00882;1836,35689;0,13038
390,56402;13,01822;1836,19075;0,13051
390,86402;13,02848;1836,85813;0,13065
391,16402;13,03759;1834,84647;0,13078
391,46402;13,04785;1835,56713;0,13091
391,76402;13,05896;1836,58246;0,13106
392,06402;13,06893;1836,40998;0,13120
392,36402;13,07947;1836,28779;0,13134
392,66402;13,08887;1836,11549;0,13147
392,96402;13,09885;1835,35721;0,13160
393,26402;13,10882;1835,37286;0,13174
393,56402;13,11850;1834,50188;0,13187
393,86402;13,12876;1835,04708;0,13201
394,16402;13,13788;1833,72162;0,13214
394,46402;13,14899;1835,01877;0,13228
394,76402;13,15896;1835,20988;0,13242
395,06402;13,16865;1835,36969;0,13256
395,36402;13,17890;1834,45476;0,13270
395,66402;13,18887;1834,63655;0,13284
395,96402;13,19942;1834,60843;0,13298
396,26402;13,20853;1834,10700;0,13311
396,56402;13,21879;1834,14463;0,13326
396,86402;13,22848;1833,90640;0,13340
397,16402;13,23873;1834,47041;0,13354
397,46402;13,24842;1834,09769;0,13368
397,76402;13,25782;1833,36437;0,13382
398,06402;13,26865;1834,27315;0,13397
398,36402;13,27833;1833,69964;0,13412
398,66402;13,28916;1833,59943;0,13428
398,96402;13,29941;1833,17959;0,13444
399,26402;13,30882;1833,65270;0,13460
399,56402;13,31936;1833,36753;0,13479
399,61402;13,32107;1021,86985;0,12788