File: 02_Appendices/Appendix_C_Experimental_Data_and_Analysis Reports/C_1_Materials_Tests/C_1_1_Tensile_tests/C_1_1_1_Quantun_70_30/Specimen_RawData_4.csv
Text Inputs : Specimen label;"1"
Dimension : Length;50,00000;mm
Dimension : Final length;100,00000;mm
Test : Rate 1;2,00000;mm/min
General : Unique Identifier;"{3134B78B-0030-4E3D-B7CF-3C5A44EDC0B5}"

Time;Extension;Load;Strain 1
(sec);(mm);(N);(mm/mm)
0,00000;0,00000;2,83703;0,00000
0,40000;0,00570;7,15803;-0,00001
0,80000;0,02536;27,33102;0,00015
1,20000;0,03989;39,98067;0,00026
1,60000;0,05328;52,90291;0,00037
2,00000;0,06667;63,86363;0,00047
2,40000;0,08034;73,60858;0,00057
2,80000;0,09316;84,32177;0,00067
3,20000;0,10655;95,35142;0,00077
3,60000;0,11994;106,54402;0,00086
4,00000;0,13276;112,00871;0,00095
4,40000;0,14615;113,97024;0,00098
4,80000;0,15926;114,53113;0,00099
5,20000;0,17350;114,91966;0,00100
5,60000;0,18689;116,33910;0,00101
6,00000;0,20057;115,07634;0,00102
6,40000;0,21282;114,02977;0,00102
6,80000;0,22650;116,08844;0,00103
7,20000;0,23989;116,16678;0,00103
7,60000;0,25356;115,80329;0,00104
8,00000;0,26695;114,91966;0,00104
8,40000;0,27977;114,90714;0,00104
8,80000;0,29345;115,57456;0,00105
9,20000;0,30598;114,70973;0,00105
9,60000;0,32023;117,28540;0,00106
10,00000;0,33305;116,43311;0,00106
10,40000;0,34672;115,96937;0,00107
10,80000;0,36011;116,26704;0,00107
11,20000;0,37293;114,78179;0,00107
11,60000;0,38632;116,49578;0,00108
12,00000;0,39971;114,70973;0,00108
12,40000;0,41367;115,02308;0,00108
12,80000;0,42707;116,19810;0,00109
13,20000;0,44017;114,91966;0,00109
13,60000;0,45356;116,92506;0,00109
14,00000;0,46667;116,60545;0,00110
14,40000;0,48006;116,67752;0,00111
14,80000;0,49345;118,10323;0,00112
15,20000;0,50684;118,71738;0,00114
15,60000;0,51966;121,15518;0,00116
16,00000;0,53362;123,84993;0,00119
16,40000;0,54644;129,83477;0,00125
16,80000;0,56011;139,42618;0,00134
17,20000;0,57350;149,24634;0,00143
17,60000;0,58632;159,17617;0,00151
18,00000;0,60000;167,99989;0,00160
18,40000;0,61282;176,33794;0,00169
18,80000;0,62678;186,03277;0,00178
19,20000;0,64017;195,95944;0,00187
19,60000;0,65356;205,54459;0,00195
20,00000;0,66695;213,75103;0,00204
20,40000;0,68034;222,31783;0,00213
20,80000;0,69345;231,01622;0,00222
21,20000;0,70655;239,62059;0,00230
21,60000;0,71966;248,96134;0,00239
22,00000;0,73276;256,00216;0,00248
22,40000;0,74701;266,79053;0,00258
22,80000;0,75983;275,10663;0,00267
23,20000;0,77379;283,87397;0,00276
23,60000;0,78661;293,74112;0,00285
24,00000;0,79971;301,74702;0,00294
24,40000;0,81310;308,85991;0,00303
24,80000;0,82592;316,68721;0,00311
25,20000;0,83989;327,06510;0,00321
25,60000;0,85356;336,33693;0,00330
26,00000;0,86752;343,76627;0,00340
26,40000;0,88006;351,56535;0,00348
26,80000;0,89345;360,11648;0,00357
27,20000;0,90655;368,47959;0,00366
27,60000;0,92023;376,66725;0,00375
28,00000;0,93333;384,11538;0,00384
28,40000;0,94615;390,41357;0,00392
28,80000;0,96040;399,86712;0,00402
29,20000;0,97265;406,31881;0,00410
29,60000;0,98718;416,42413;0,00420
30,00000;1,00000;423,57147;0,00429
30,40000;1,01339;431,47709;0,00437
30,80000;1,02649;439,39212;0,00446
31,20000;1,03903;445,26733;0,00454
31,60000;1,05328;454,96211;0,00464
32,00000;1,06667;462,45102;0,00473
32,40000;1,08034;469,45424;0,00482
32,80000;1,09430;476,72377;0,00491
33,20000;1,10684;483,63609;0,00499
33,60000;1,12023;491,26288;0,00507
34,00000;1,13305;498,08118;0,00515
34,40000;1,14672;504,70526;0,00524
34,80000;1,15954;511,50792;0,00532
35,20000;1,17350;519,23809;0,00542
35,60000;1,18661;526,58599;0,00549
36,00000;1,20057;533,08471;0,00558
36,40000;1,21282;538,54627;0,00566
36,80000;1,22678;546,44248;0,00575
37,20000;1,24017;553,29530;0,00583
37,60000;1,25271;559,03262;0,00591
38,00000;1,26638;565,83527;0,00599
38,40000;1,27949;572,72254;0,00608
38,80000;1,29373;580,43078;0,00616
39,20000;1,30712;587,50291;0,00625
39,60000;1,32023;594,33375;0,00633
40,00000;1,33362;599,97705;0,00641
40,40000;1,34672;607,92970;0,00649
40,80000;1,36011;613,43824;0,00658
41,20000;1,37322;619,23196;0,00665
41,60000;1,38632;626,44826;0,00673
42,00000;1,40000;631,12020;0,00681
42,40000;1,41396;637,21156;0,00689
42,80000;1,42649;642,65118;0,00695
43,20000;1,43988;648,77393;0,00703
43,60000;1,45356;654,58952;0,00710
44,00000;1,46610;657,95486;0,00717
44,40000;1,47977;663,84883;0,00725
44,80000;1,49259;668,78395;0,00732
45,20000;1,50684;675,74331;0,00739
45,60000;1,52023;682,29842;0,00747
46,00000;1,53390;687,08942;0,00754
46,40000;1,54672;691,95880;0,00761
46,80000;1,55983;697,17905;0,00768
47,20000;1,57322;702,02649;0,00775
47,60000;1,58689;709,24275;0,00784
48,00000;1,60028;713,87081;0,00791
48,40000;1,61282;717,85026;0,00797
48,80000;1,62706;723,78186;0,00805
49,20000;1,63988;728,68252;0,00812
49,60000;1,65356;735,39433;0,00819
50,00000;1,66638;739,91274;0,00826
50,40000;1,68006;745,16432;0,00834
50,80000;1,69345;751,01443;0,00841
51,20000;1,70598;754,81217;0,00848
51,60000;1,71994;762,23211;0,00855
52,00000;1,73305;766,46851;0,00862
52,40000;1,74701;772,35620;0,00869
52,80000;1,76068;777,28508;0,00877
53,20000;1,77350;781,60297;0,00884
53,60000;1,78632;787,53447;0,00891
54,00000;1,80000;792,08426;0,00899
54,40000;1,81367;798,20696;0,00906
54,80000;1,82649;803,48682;0,00913
55,20000;1,84017;808,83866;0,00921
55,60000;1,85327;813,82710;0,00927
56,00000;1,86723;818,44265;0,00935
56,40000;1,87949;822,16514;0,00941
56,80000;1,89316;828,92701;0,00949
57,20000;1,90684;834,57660;0,00957
57,60000;1,91966;839,74367;0,00964
58,00000;1,93305;844,00820;0,00971
58,40000;1,94615;849,49173;0,00978
58,80000;1,96040;854,97834;0,00986
59,20000;1,97322;859,71607;0,00993
59,60000;1,98689;865,62261;0,01000
60,00000;2,00028;870,45124;0,01008
60,40000;2,01367;875,15451;0,01015
60,80000;2,02678;880,08959;0,01022
61,20000;2,04017;884,90881;0,01029
61,60000;2,05356;891,43887;0,01037
62,00000;2,06638;894,47517;0,01044
62,40000;2,08034;900,77650;0,01052
62,80000;2,09345;905,71791;0,01059
63,20000;2,10655;909,97936;0,01066
63,60000;2,11994;916,89480;0,01074
64,00000;2,13276;920,60482;0,01080
64,40000;2,14644;926,03192;0,01088
64,80000;2,15897;929,52885;0,01095
65,20000;2,17350;935,98990;0,01103
65,60000;2,18689;941,35441;0,01111
66,00000;2,20028;945,46545;0,01118
66,40000;2,21339;950,09664;0,01125
66,80000;2,22706;955,46106;0,01133
67,20000;2,24017;960,98529;0,01141
67,60000;2,25356;965,58519;0,01148
68,00000;2,26695;970,50779;0,01155
68,40000;2,27977;974,16760;0,01162
68,80000;2,29344;980,70707;0,01171
69,20000;2,30627;984,42016;0,01178
69,60000;2,32051;991,06617;0,01186
70,00000;2,33333;995,68479;0,01193
70,40000;2,34701;1001,56944;0,01201
70,80000;2,36011;1006,03458;0,01208
71,20000;2,37265;1009,40922;0,01215
71,60000;2,38661;1014,75175;0,01223
72,00000;2,39943;1020,40125;0,01230
72,40000;2,41396;1026,36730;0,01239
72,80000;2,42735;1031,05176;0,01247
73,20000;2,44045;1036,02456;0,01254
73,60000;2,45327;1040,46147;0,01262
74,00000;2,46666;1045,86976;0,01269
74,40000;2,48005;1051,03683;0,01277
74,80000;2,49316;1054,88468;0,01284
75,20000;2,50683;1061,00105;0,01292
75,60000;2,52023;1065,15912;0,01300
76,00000;2,53390;1071,11577;0,01308
76,40000;2,54644;1075,38980;0,01316
76,80000;2,56011;1080,00217;0,01323
77,20000;2,57350;1084,93734;0,01331
77,60000;2,58604;1089,27712;0,01338
78,00000;2,59971;1094,21536;0,01347
78,40000;2,61253;1098,90923;0,01354
78,80000;2,62706;1104,85023;0,01363
79,20000;2,64017;1108,63540;0,01371
79,60000;2,65356;1114,01239;0,01379
80,00000;2,66695;1118,70626;0,01386
80,40000;2,68034;1123,76986;0,01394
80,80000;2,69344;1128,14410;0,01402
81,20000;2,70655;1132,65002;0,01410
81,60000;2,71966;1137,86720;0,01418
82,00000;2,73305;1141,83091;0,01425
82,40000;2,74701;1147,76874;0,01434
82,80000;2,76011;1152,78224;0,01441
83,20000;2,77379;1156,68960;0,01450
83,60000;2,78661;1161,49941;0,01457
84,00000;2,79943;1165,24072;0,01465
84,40000;2,81282;1170,67415;0,01473
84,80000;2,82564;1175,50902;0,01481
85,20000;2,84017;1181,01127;0,01490
85,60000;2,85356;1185,24451;0,01498
86,00000;2,86723;1190,27682;0,01506
86,40000;2,88005;1195,43131;0,01514
86,80000;2,89344;1200,23172;0,01522
87,20000;2,90655;1203,35892;0,01529
87,60000;2,92022;1209,50043;0,01538
88,00000;2,93333;1213,54880;0,01546
88,40000;2,94615;1218,14869;0,01554
88,80000;2,96011;1224,07079;0,01563
89,20000;2,97322;1227,73694;0,01571
89,60000;2,98689;1232,60943;0,01579
90,00000;2,99971;1236,79880;0,01587
90,40000;3,01339;1242,28233;0,01595
90,80000;3,02678;1246,85708;0,01604
91,20000;3,03874;1250,04696;0,01611
91,60000;3,05327;1255,59308;0,01620
92,00000;3,06695;1260,49062;0,01629
92,40000;3,08034;1265,57928;0,01637
92,80000;3,09401;1270,36097;0,01645
93,20000;3,10712;1274,54093;0,01654
93,60000;3,11994;1278,46710;0,01662
94,00000;3,13305;1283,33019;0,01670
94,40000;3,14672;1287,43183;0,01679
94,80000;3,16011;1292,10064;0,01687
95,20000;3,17379;1296,69737;0,01696
95,60000;3,18661;1300,80525;0,01704
96,00000;3,20028;1305,42079;0,01713
96,40000;3,21282;1309,79819;0,01721
96,80000;3,22649;1314,47325;0,01729
97,20000;3,24017;1318,82876;0,01738
97,60000;3,25270;1323,13408;0,01747
98,00000;3,26638;1327,49584;0,01756
98,40000;3,27948;1331,91077;0,01764
98,80000;3,29373;1337,22825;0,01774
99,20000;3,30655;1341,38940;0,01782
99,60000;3,32022;1346,03633;0,01791
100,00000;3,33333;1350,26015;0,01799
100,40000;3,34672;1355,06680;0,01808
100,80000;3,36011;1359,46302;0,01816
101,20000;3,37350;1363,37038;0,01825
101,60000;3,38661;1368,01098;0,01834
102,00000;3,40000;1371,71783;0,01842
102,40000;3,41367;1376,15791;0,01852
102,80000;3,42678;1380,75463;0,01860
103,20000;3,44017;1384,97222;0,01869
103,60000;3,45327;1389,10525;0,01877
104,00000;3,46666;1393,44502;0,01886
104,40000;3,47977;1397,49339;0,01895
104,80000;3,49230;1401,73919;0,01903
105,20000;3,50683;1407,11619;0,01913
105,60001;3,52022;1411,27417;0,01922
106,00001;3,53390;1415,44165;0,01931
106,40001;3,54643;1418,89155;0,01939
106,80001;3,56011;1423,58541;0,01948
107,20001;3,57322;1427,74032;0,01957
107,60001;3,58689;1431,87959;0,01967
108,00001;3,60028;1435,83715;0,01975
108,40001;3,61282;1439,51895;0,01983
108,80001;3,62706;1444,72355;0,01993
109,20001;3,63931;1447,80055;0,02001
109,60001;3,65384;1452,17795;0,02011
110,00001;3,66666;1456,76527;0,02020
110,40001;3,68005;1460,51915;0,02029
110,80001;3,69344;1464,65525;0,02038
111,20001;3,70598;1468,42161;0,02047
111,60001;3,71994;1471,70229;0,02056
112,00001;3,73276;1476,26773;0,02065
112,40001;3,74700;1481,27805;0,02075
112,80001;3,76011;1484,64022;0,02084
113,20001;3,77350;1488,03685;0,02093
113,60001;3,78689;1491,85648;0,02102
114,00001;3,80000;1496,20567;0,02111
114,40001;3,81339;1499,93757;0,02120
114,80001;3,82649;1503,80116;0,02129
115,20001;3,84045;1507,53614;0,02139
115,60001;3,85299;1510,73849;0,02147
116,00001;3,86695;1515,24441;0,02157
116,40001;3,87948;1518,24625;0,02166
116,80001;3,89344;1523,78613;0,02176
117,20001;3,90683;1526,99165;0,02186
117,60001;3,91965;1529,78972;0,02194
118,00001;3,93333;1534,16405;0,02203
118,40001;3,94586;1536,96220;0,02213
118,80001;3,96011;1541,48061;0,02222
119,20001;3,97350;1545,03072;0,02232
119,60001;3,98689;1548,69370;0,02242
120,00001;4,00028;1551,99319;0,02250
120,40001;4,01367;1556,08235;0,02260
120,80001;4,02678;1559,67008;0,02270
121,20001;4,03960;1561,97632;0,02278
121,60001;4,05356;1567,31866;0,02289
122,00001;4,06638;1569,75351;0,02298
122,40001;4,08034;1574,39411;0,02308
122,80001;4,09344;1577,51814;0,02317
123,20001;4,10712;1581,51314;0,02327
123,60001;4,12022;1585,29524;0,02337
124,00001;4,13276;1587,90536;0,02346
124,40001;4,14643;1591,52448;0,02355
124,80001;4,15897;1594,59524;0,02365
125,20001;4,17350;1599,00077;0,02375
125,60001;4,18689;1602,72028;0,02385
126,00001;4,20085;1606,51170;0,02395
126,40001;4,21339;1609,30045;0,02404
126,80001;4,22678;1613,24218;0,02414
127,20001;4,23988;1615,70515;0,02423
127,60001;4,25356;1618,92623;0,02433
128,00001;4,26666;1622,31345;0,02443
128,40001;4,27948;1625,88879;0,02452
128,80001;4,29344;1629,63625;0,02463
129,20001;4,30626;1632,31846;0,02472
129,60001;4,32022;1636,23523;0,02483
130,00001;4,33333;1638,98952;0,02492
130,40001;4,34672;1643,16650;0,02502
130,80001;4,35982;1645,49779;0,02512
131,20001;4,37236;1648,09525;0,02521
131,60001;4,38660;1652,30669;0,02532
132,00001;4,39971;1655,01386;0,02542
132,40001;4,41367;1659,70158;0,02552
132,80001;4,42735;1662,39943;0,02562
133,20001;4,44017;1665,67080;0,02572
133,60001;4,45327;1667,65731;0,02582
134,00001;4,46666;1670,82828;0,02592
134,40001;4,48005;1674,55077;0,02602
134,80001;4,49316;1676,80997;0,02612
135,20001;4,50712;1680,64218;0,02623
135,60001;4,52022;1683,46856;0,02632
136,00001;4,53361;1686,55496;0,02643
136,40001;4,54643;1689,15261;0,02652
136,80001;4,56011;1692,45210;0,02663
137,20001;4,57350;1695,35372;0,02673
137,60001;4,58604;1697,46876;0,02683
138,00001;4,59971;1700,58962;0,02694
138,40001;4,61310;1704,44064;0,02704
138,80001;4,62678;1707,20741;0,02715
139,20001;4,64045;1709,55751;0,02725
139,60001;4,65356;1712,32428;0,02736
140,00001;4,66666;1715,24156;0,02745
140,40001;4,68034;1718,20577;0,02756
140,80001;4,69344;1720,94125;0,02766
141,20001;4,70655;1722,73666;0,02776
141,60001;4,71994;1726,52192;0,02787
142,00001;4,73304;1728,41121;0,02797
142,40001;4,74700;1731,37560;0,02808
142,80001;4,75982;1733,95742;0,02818
143,20001;4,77321;1736,74934;0,02828
143,60001;4,78660;1739,26242;0,02839
144,00001;4,79942;1741,09545;0,02850
144,40001;4,81310;1744,41691;0,02860
144,80001;4,82592;1746,74802;0,02870
145,20001;4,84017;1749,34566;0,02882
145,60001;4,85356;1752,73288;0,02893
146,00001;4,86723;1754,95762;0,02903
146,40001;4,88005;1757,16355;0,02914
146,80001;4,89344;1759,96497;0,02925
147,20001;4,90655;1761,59106;0,02935
147,60001;4,92022;1765,19137;0,02947
148,00001;4,93361;1766,73308;0,02958
148,40001;4,94615;1768,16508;0,02968
148,80001;4,96011;1772,05056;0,02979
149,20001;4,97264;1773,82082;0,02989
149,60001;4,98689;1776,92920;0,03001
150,00001;4,99971;1778,55231;0,03011
150,40001;5,01338;1781,39750;0,03022
150,80001;5,02678;1783,83216;0,03033
151,20001;5,03931;1784,80353;0,03043
151,60001;5,05327;1788,15946;0,03055
152,00001;5,06638;1789,72296;0,03066
152,40001;5,08034;1793,10720;0,03078
152,80001;5,09401;1795,47593;0,03089
153,20001;5,10683;1796,25303;0,03100
153,60001;5,11965;1798,66273;0,03110
154,00001;5,13333;1801,49525;0,03122
154,40001;5,14700;1803,26886;0,03134
154,80001;5,16011;1805,94791;0,03145
155,20001;5,17350;1808,26038;0,03156
155,60001;5,18660;1809,51376;0,03167
156,00001;5,20056;1811,92327;0,03179
156,40001;5,21281;1813,18298;0,03189
156,80001;5,22649;1816,46682;0,03201
157,20001;5,24017;1818,24341;0,03213
157,60001;5,25270;1819,08328;0,03223
158,00001;5,26666;1821,96293;0,03235
158,40001;5,27920;1823,69873;0,03246
158,80001;5,29373;1826,48432;0,03258
159,20001;5,30655;1828,24843;0,03269
159,60001;5,32022;1830,33217;0,03281
160,00001;5,33361;1831,74536;0,03293
160,40001;5,34700;1834,80680;0,03305
160,80001;5,36039;1836,33268;0,03316
161,20001;5,37350;1837,67080;0,03327
161,60001;5,38632;1839,29391;0,03339
162,00001;5,39971;1840,99525;0,03350
162,40001;5,41367;1843,43942;0,03363
162,80001;5,42649;1845,50732;0,03374
163,20001;5,44045;1846,72326;0,03386
163,60001;5,45327;1848,71610;0,03398
164,00001;5,46609;1850,38932;0,03409
164,40001;5,47977;1852,07184;0,03421
164,80001;5,49230;1853,38166;0,03433
165,20001;5,50683;1855,61590;0,03445
165,60001;5,52022;1857,62439;0,03457
166,00001;5,53390;1859,32275;0,03469
166,40001;5,54700;1861,16192;0,03481
166,80001;5,56039;1862,40282;0,03493
167,20001;5,57350;1863,93820;0,03505
167,60001;5,58717;1865,79637;0,03518
168,00001;5,60028;1867,57613;0,03529
168,40001;5,61281;1867,42879;0,03540
168,80001;5,62677;1870,30844;0,03553
169,20001;5,63959;1871,06673;0,03565
169,60001;5,65384;1873,43564;0,03578
170,00001;5,66638;1874,26601;0,03589
170,40001;5,68034;1876,31845;0,03602
170,80001;5,69316;1877,20824;0,03614
171,20001;5,70569;1877,67837;0,03625
171,60001;5,71965;1879,50507;0,03638
172,00001;5,73276;1881,32878;0,03650
172,40001;5,74729;1882,95804;0,03663
172,80001;5,76039;1884,61561;0,03675
173,20001;5,77378;1885,22041;0,03687
173,60001;5,78660;1887,22890;0,03699
174,00001;5,79999;1887,38871;0,03712
174,40001;5,81338;1889,52889;0,03724
174,80001;5,82677;1890,51274;0,03737
175,20001;5,84016;1891,61897;0,03749
175,60001;5,85299;1892,82838;0,03761
176,00001;5,86723;1894,41703;0,03774
176,40001;5,87977;1895,14402;0,03787
176,80001;5,89316;1896,48196;0,03799
177,20001;5,90683;1897,43768;0,03812
177,60001;5,91937;1898,00803;0,03824
178,00001;5,93276;1899,34913;0,03837
178,40001;5,94586;1900,42704;0,03849
178,80001;5,96068;1902,56089;0,03863
179,20001;5,97350;1903,23144;0,03875
179,60001;5,98689;1903,61682;0,03888
180,00001;6,00056;1905,41856;0,03901
180,40001;6,01367;1906,39608;0,03914
180,80001;6,02677;1907,64945;0,03926
181,20001;6,03988;1908,29188;0,03939
181,60001;6,05327;1910,47899;0,03952
182,00001;6,06666;1909,93696;0,03964
182,40001;6,08062;1911,45968;0,03978
182,80001;6,09373;1913,27091;0,03991
183,20001;6,10712;1913,49965;0,04004
183,60001;6,11994;1914,15772;0,04017
184,00001;6,13276;1914,45537;0,04029
184,40001;6,14643;1916,15354;0,04043
184,80001;6,15897;1916,57040;0,04055
185,20001;6,17350;1918,25293;0,04069
185,60001;6,18717;1919,32153;0,04082
186,00001;6,20056;1919,98575;0,04096
186,40001;6,21310;1919,92316;0,04108
186,80001;6,22677;1921,21416;0,04122
187,20001;6,23988;1921,60271;0,04135
187,60001;6,25327;1922,73688;0,04148
188,00001;6,26695;1923,66447;0,04161
188,40001;6,27977;1923,46703;0,04174
188,80001;6,29344;1925,42858;0,04188
189,20001;6,30655;1925,69178;0,04201
189,60001;6,32051;1926,54729;0,04215
190,00001;6,33304;1926,87307;0,04227
190,40001;6,34672;1928,46488;0,04241
190,80001;6,36011;1929,03820;0,04255
191,20001;6,37236;1928,26111;0,04267
191,60001;6,38632;1929,47686;0,04281
192,00001;6,39971;1930,84311;0,04295
192,40001;6,41395;1932,06519;0,04309
192,80001;6,42734;1932,29709;0,04322
193,20001;6,44016;1932,53197;0,04336
193,60001;6,45327;1933,00210;0,04349
194,00001;6,46637;1933,36233;0,04363
194,40001;6,48005;1934,76621;0,04377
194,80001;6,49344;1935,26447;0,04391
195,20001;6,50712;1935,65916;0,04405
195,60001;6,51994;1935,37101;0,04418
196,00001;6,53390;1936,45824;0,04432
196,40001;6,54615;1936,21069;0,04445
196,80001;6,55982;1937,57378;0,04459
197,20001;6,57321;1938,23166;0,04473
197,60001;6,58603;1938,00293;0,04486
198,00001;6,59999;1938,88973;0,04501
198,40001;6,61253;1938,83032;0,04514
198,80001;6,62734;1940,54730;0,04529
199,20001;6,64045;1940,42511;0,04542
199,60001;6,65355;1940,77287;0,04556
200,00001;6,66666;1940,98596;0,04570
200,40001;6,68033;1941,48105;0,04584
200,80001;6,69344;1942,08901;0,04598
201,20001;6,70655;1941,86959;0,04612
201,60001;6,72022;1942,70946;0,04626
202,00001;6,73304;1942,59025;0,04639
202,40001;6,74700;1943,46774;0,04654
202,80001;6,75982;1943,64320;0,04668
203,20001;6,77378;1943,65252;0,04682
203,60001;6,78660;1943,58677;0,04696
204,00001;6,79942;1944,13513;0,04710
204,40001;6,81310;1944,34188;0,04724
204,80001;6,82620;1943,55547;0,04738
205,20001;6,83988;1945,73309;0,04753
205,60001;6,85355;1945,42613;0,04767
206,00001;6,86723;1945,73011;0,04781
206,40001;6,87948;1945,48871;0,04794
206,80001;6,89315;1946,69832;0,04809
207,20001;6,90683;1946,49771;0,04824
207,60001;6,92022;1947,30293;0,04839
208,00001;6,93361;1947,54116;0,04852
208,40001;6,94643;1945,96816;0,04866
208,80001;6,96039;1947,40649;0,04881
209,20001;6,97264;1946,14045;0,04895
209,60001;6,98689;1948,36203;0,04910
210,00001;6,99999;1947,96417;0,04924
210,40001;7,01367;1948,27747;0,04939
210,80001;7,02706;1948,00794;0,04953
211,20001;7,03931;1947,70414;0,04967
211,60001;7,05355;1949,08585;0,04982
212,00001;7,06637;1948,86345;0,04996
212,40001;7,08033;1948,42797;0,05011
212,79801;7,09372;1948,91989;0,05026
213,10801;7,10398;1949,13913;0,05037
213,50801;7,11652;1948,49689;0,05051
213,90801;7,13048;1949,18942;0,05066
214,30801;7,14387;1948,85712;0,05081
214,70801;7,15697;1949,12981;0,05095
215,10801;7,17008;1949,45876;0,05109
215,50801;7,18347;1949,66253;0,05124
215,90801;7,19714;1949,71263;0,05139
216,30801;7,20996;1949,21438;0,05154
216,70801;7,22364;1949,75026;0,05169
217,10801;7,23703;1950,36754;0,05184
217,50801;7,25013;1949,99464;0,05198
217,90801;7,26296;1948,75374;0,05212
218,30801;7,27663;1949,58728;0,05227
218,70801;7,29031;1949,98514;0,05243
219,10801;7,30313;1950,12316;0,05257
219,50801;7,31766;1950,77490;0,05273
219,90801;7,33019;1949,82234;0,05287
220,30801;7,34387;1949,66570;0,05302
220,70801;7,35669;1949,73759;0,05316
221,10801;7,37008;1949,85997;0,05332
221,50801;7,38375;1949,69699;0,05347
221,90801;7,39657;1949,61857;0,05361
222,30801;7,41082;1950,48656;0,05377
222,70801;7,42364;1950,71846;0,05391
223,10801;7,43731;1950,10435;0,05407
223,50801;7,45013;1949,98216;0,05421
223,90801;7,46352;1950,17010;0,05437
224,30801;7,47634;1948,93237;0,05451
224,70801;7,48974;1949,84414;0,05466
225,10801;7,50341;1950,11366;0,05481
225,50801;7,51709;1950,34556;0,05497
225,90801;7,53076;1949,94137;0,05513
226,30801;7,54330;1949,36488;0,05527
226,70801;7,55754;1950,28298;0,05543
227,10801;7,57036;1949,97266;0,05558
227,50801;7,58375;1949,15477;0,05573
227,90801;7,59686;1948,99514;0,05588
228,30801;7,60968;1948,82266;0,05603
228,70801;7,62392;1948,93871;0,05618
229,10801;7,63674;1948,33390;0,05633
229,50801;7,65070;1949,16744;0,05649
229,90801;7,66352;1948,06755;0,05663
230,30801;7,67691;1948,37470;0,05679
230,70801;7,68945;1947,07736;0,05693
231,10801;7,70313;1947,68533;0,05709
231,50801;7,71623;1947,21520;0,05724
231,90801;7,73019;1948,14596;0,05740
232,30801;7,74415;1948,10200;0,05756
232,70801;7,75669;1947,56314;0,05770
233,10801;7,77065;1947,76673;0,05786
233,50801;7,78347;1947,07122;0,05801
233,90801;7,79714;1946,18441;0,05816
234,30801;7,81025;1947,04607;0,05831
234,70801;7,82364;1946,10283;0,05846
235,10801;7,83674;1945,69565;0,05861
235,50801;7,84985;1946,79853;0,05877
235,90801;7,86381;1945,92122;0,05893
236,30801;7,87663;1946,15312;0,05908
236,70801;7,89030;1945,78338;0,05923
237,10801;7,90313;1944,52684;0,05938
237,50801;7,91680;1945,51069;0,05954
237,90801;7,92934;1944,54864;0,05968
238,30801;7,94330;1944,47041;0,05984
238,70801;7,95726;1945,04373;0,06000
239,10801;7,97036;1944,75558;0,06016
239,50801;7,98432;1944,71162;0,06032
239,90801;7,99629;1942,44627;0,06046
240,30801;8,01053;1944,26049;0,06063
240,70801;8,02335;1943,16376;0,06077
241,10801;8,03674;1942,88809;0,06093
241,50801;8,05042;1943,56479;0,06109
241,90801;8,06381;1943,41447;0,06125
242,30801;8,07777;1943,28595;0,06140
242,70801;8,09030;1943,26714;0,06156
243,10801;8,10369;1942,56213;0,06171
243,50801;8,11652;1942,17991;0,06187
243,90801;8,13019;1942,27695;0,06203
244,30801;8,14301;1940,44076;0,06217
244,70801;8,15640;1941,32440;0,06233
245,10801;8,17008;1942,00445;0,06250
245,50801;8,18347;1941,13012;0,06265
245,90801;8,19771;1941,22419;0,06281
246,30801;8,20996;1940,99545;0,06296
246,70801;8,22392;1940,76989;0,06312
247,10801;8,23646;1939,71377;0,06327
247,50801;8,25042;1940,05221;0,06343
247,90801;8,26381;1939,94567;0,06359
248,30801;8,27634;1939,30343;0,06374
248,70801;8,29059;1939,62920;0,06390
249,10801;8,30341;1939,68564;0,06406
249,50801;8,31737;1939,39433;0,06422
249,90801;8,32991;1938,23799;0,06437
250,30801;8,34330;1938,15660;0,06453
250,70801;8,35612;1937,58626;0,06468
251,10801;8,36979;1937,93084;0,06484
251,50801;8,38318;1937,83380;0,06500
251,90801;8,39686;1937,90272;0,06516
252,30801;8,41082;1937,32623;0,06533
252,70801;8,42364;1937,64586;0,06548
253,10801;8,43731;1937,27612;0,06564
253,50801;8,44956;1935,98829;0,06579
253,90801;8,46409;1936,72143;0,06596
254,30801;8,47691;1936,56478;0,06612
254,70801;8,49030;1935,79700;0,06627
255,10801;8,50398;1936,38932;0,06643
255,50801;8,51680;1935,48054;0,06659
255,90801;8,53048;1935,37399;0,06675
256,30801;8,54301;1934,73175;0,06691
256,70801;8,55669;1935,71560;0,06707
257,10801;8,57036;1933,97962;0,06723
257,50801;8,58347;1933,56927;0,06739
257,90801;8,59600;1932,48186;0,06754
258,30801;8,60996;1933,81365;0,06771
258,70801;8,62364;1933,64751;0,06787
259,10801;8,63674;1932,60722;0,06802
259,50801;8,65099;1933,54413;0,06819
259,90801;8,66352;1932,37849;0,06834
260,30801;8,67720;1932,65118;0,06850
260,70801;8,69002;1932,41928;0,06866
261,10801;8,70369;1931,13144;0,06882
261,50801;8,71708;1931,02490;0,06898
261,90801;8,72991;1930,73340;0,06913
262,30801;8,74386;1929,88124;0,06930
262,70801;8,75669;1929,96264;0,06945
263,10801;8,76979;1929,51448;0,06961
263,50801;8,78347;1929,31406;0,06977
263,90801;8,79686;1928,55261;0,06994
264,30801;8,80968;1927,39945;0,07009
264,70801;8,82307;1928,27061;0,07025
265,10801;8,83674;1928,48686;0,07042
265,50801;8,85042;1928,10129;0,07058
265,90801;8,86381;1927,60620;0,07074
266,30801;8,87663;1926,84177;0,07090
266,70801;8,89087;1926,90119;0,07106
267,10801;8,90312;1925,99259;0,07122
267,50801;8,91708;1925,83594;0,07138
267,90801;8,93047;1925,47236;0,07154
268,30801;8,94301;1924,66713;0,07170
268,70801;8,95697;1925,61336;0,07186
269,10801;8,97008;1924,64832;0,07202
269,50801;8,98404;1925,04320;0,07219
269,90801;8,99657;1923,86191;0,07234
270,30801;9,01025;1924,67347;0,07251
270,70801;9,02364;1923,21949;0,07267
271,10801;9,03646;1923,62685;0,07283
271,50801;9,04985;1922,67429;0,07299
271,90801;9,06352;1922,82163;0,07315
272,30801;9,07720;1923,21632;0,07332
272,70801;9,09030;1922,06334;0,07348
273,10801;9,10398;1922,32020;0,07364
273,50801;9,11680;1921,53994;0,07380
273,90801;9,13047;1921,20466;0,07396
274,30801;9,14358;1920,91949;0,07412
274,70801;9,15697;1920,74403;0,07428
275,10801;9,17036;1920,18952;0,07444
275,50801;9,18318;1919,98258;0,07461
275,90801;9,19714;1919,86356;0,07478
276,30801;9,20996;1919,63166;0,07493
276,70801;9,22364;1919,12092;0,07510
277,10801;9,23703;1918,96744;0,07526
277,50801;9,25013;1919,39976;0,07542
277,90801;9,26267;1916,89003;0,07558
278,30801;9,27634;1916,87439;0,07574
278,70801;9,29059;1918,27174;0,07591
279,10801;9,30341;1917,10610;0,07607
279,50801;9,31765;1917,69525;0,07624
279,90801;9,32990;1916,12225;0,07640
280,30801;9,34415;1916,35098;0,07657
280,70801;9,35640;1915,16969;0,07672
281,10801;9,37007;1915,74004;0,07689
281,50801;9,38375;1915,43605;0,07705
281,90801;9,39686;1915,06948;0,07721
282,30801;9,41053;1914,79363;0,07738
282,70801;9,42364;1915,00671;0,07754
283,10801;9,43731;1914,48983;0,07771
283,50801;9,44985;1913,49015;0,07786
283,90801;9,46352;1913,78165;0,07803
284,30801;9,47634;1912,74751;0,07819
284,70801;9,48973;1913,66263;0,07835
285,10801;9,50341;1912,93564;0,07852
285,50801;9,51708;1912,87920;0,07869
285,90801;9,53076;1912,91049;0,07886
286,30801;9,54329;1911,68841;0,07902
286,70801;9,55754;1912,24311;0,07919
287,10801;9,57007;1911,50997;0,07935
287,50801;9,58375;1910,92398;0,07951
287,90801;9,59686;1910,09678;0,07968
288,30801;9,60996;1910,33799;0,07984
288,70801;9,62421;1909,77082;0,08001
289,10801;9,63674;1909,56723;0,08017
289,50801;9,65070;1909,67061;0,08034
289,90801;9,66324;1907,83124;0,08049
290,30801;9,67691;1908,75251;0,08066
290,70801;9,68973;1907,93462;0,08082
291,10801;9,70284;1907,74035;0,08098
291,50801;9,71623;1907,22644;0,08115
291,90801;9,73019;1908,01620;0,08131
292,30801;9,74415;1907,03217;0,08149
292,70801;9,75668;1906,58104;0,08164
293,10801;9,77064;1907,11375;0,08181
293,50801;9,78318;1905,84771;0,08197
293,90801;9,79743;1905,50946;0,08214
294,30801;9,81025;1905,63165;0,08230
294,70801;9,82364;1905,29637;0,08246
295,10801;9,83731;1904,49413;0,08263
295,50801;9,85013;1904,33431;0,08279
295,90801;9,86381;1904,00854;0,08295
296,30801;9,87663;1904,00537;0,08312
296,70801;9,89002;1903,65762;0,08329
297,10801;9,90341;1902,42920;0,08344
297,50801;9,91680;1903,81724;0,08361
297,90801;9,92962;1901,55804;0,08378
298,30801;9,94301;1901,67092;0,08394
298,70801;9,95725;1902,47316;0,08411
299,10801;9,97036;1901,62398;0,08427
299,50801;9,98432;1901,99688;0,08444
299,90801;9,99657;1900,24842;0,08460
300,30801;10,01081;1900,89699;0,08477
300,70801;10,02335;1899,43686;0,08493
301,10801;10,03674;1900,21694;0,08510
301,50801;10,05070;1900,48032;0,08527
301,90801;10,06352;1900,26723;0,08543
302,30801;10,07720;1899,08892;0,08560
302,70801;10,09030;1898,78810;0,08576
303,10801;10,10341;1898,20528;0,08592
303,50801;10,11651;1897,33431;0,08608
303,90801;10,13019;1898,11755;0,08626
304,30801;10,14301;1896,38790;0,08641
304,70801;10,15640;1897,14320;0,08658
305,10801;10,17007;1897,71652;0,08675
305,50801;10,18375;1897,93278;0,08691
305,90801;10,19742;1896,97072;0,08708
306,30801;10,20996;1895,95558;0,08724
306,70801;10,22392;1897,07428;0,08741
307,10801;10,23703;1895,63911;0,08758
307,50801;10,25042;1896,12173;0,08774
307,90801;10,26352;1895,64228;0,08791
308,30801;10,27634;1894,95906;0,08807
308,70801;10,29059;1895,27553;0,08824
309,10801;10,30341;1893,36427;0,08841
309,50801;10,31737;1894,84004;0,08858
309,90801;10,32990;1893,72152;0,08873
310,30801;10,34358;1893,64627;0,08891
310,70801;10,35640;1892,01366;0,08906
311,10801;10,36979;1893,34545;0,08923
311,50801;10,38318;1892,30517;0,08940
311,90801;10,39685;1893,30149;0,08957
312,30801;10,41053;1893,20445;0,08974
312,70801;10,42335;1891,77245;0,08990
313,10801;10,43760;1892,38340;0,09007
313,50801;10,45013;1891,75047;0,09023
313,90801;10,46409;1890,91396;0,09040
314,30801;10,47691;1891,66274;0,09057
314,70801;10,49030;1890,95773;0,09073
315,10801;10,50369;1890,83871;0,09090
315,50801;10,51651;1890,77295;0,09106
315,90802;10,53019;1890,89198;0,09123
316,30802;10,54329;1890,26520;0,09140
316,70802;10,55725;1889,82338;0,09157
317,10802;10,57036;1890,25272;0,09173
317,50802;10,58346;1889,75446;0,09190
317,90802;10,59628;1888,22541;0,09206
318,30802;10,60996;1888,71101;0,09223
318,70802;10,62363;1888,96172;0,09240
319,10802;10,63703;1888,25056;0,09257
319,50802;10,65099;1889,29699;0,09274
319,90802;10,66324;1886,70568;0,09289
320,30802;10,67748;1888,36008;0,09307
320,70802;10,69002;1887,03164;0,09323
321,10802;10,70312;1885,81273;0,09339
321,50802;10,71708;1886,70885;0,09356
321,90802;10,72990;1886,69935;0,09373
322,30802;10,74358;1885,84719;0,09389
322,70802;10,75668;1885,74065;0,09406
323,10802;10,77036;1885,84402;0,09423
323,50802;10,78318;1884,38687;0,09439
323,90802;10,79714;1885,46795;0,09456
324,30802;10,80967;1884,12368;0,09472
324,70802;10,82307;1883,23073;0,09489
325,10802;10,83645;1883,60978;0,09505
325,50802;10,85013;1883,50342;0,09522
325,90802;10,86438;1884,04862;0,09540
326,30802;10,87691;1883,91376;0,09556
326,70802;10,89087;1883,46878;0,09573
327,10802;10,90369;1883,00516;0,09589
327,50802;10,91737;1882,70118;0,09606
327,90802;10,93019;1881,91477;0,09622
328,30802;10,94272;1880,74596;0,09638
328,70802;10,95754;1882,06192;0,09656
329,10802;10,97007;1882,09321;0,09673
329,50802;10,98403;1881,77992;0,09689
329,90802;10,99657;1880,76794;0,09706
330,30802;11,01024;1881,36008;0,09723
330,70802;11,02278;1879,08839;0,09739
331,10802;11,03617;1879,64607;0,09756
331,50802;11,04985;1880,51723;0,09772
331,90802;11,06352;1880,42000;0,09790
332,30802;11,07748;1880,22256;0,09807
332,70802;11,09087;1879,95322;0,09824
333,10802;11,10398;1879,23871;0,09840
333,50802;11,11680;1878,55568;0,09856
333,90802;11,13047;1878,55251;0,09873
334,30802;11,14386;1879,20425;0,09890
334,70802;11,15668;1878,73114;0,09907
335,10802;11,17036;1878,43964;0,09923
335,50802;11,18346;1877,20824;0,09940
335,90802;11,19714;1877,33360;0,09957
336,30802;11,20967;1877,99484;0,09974
336,70802;11,22363;1877,12368;0,09991
337,10802;11,23703;1877,17695;0,10007
337,50802;11,24956;1876,95455;0,10024
337,90802;11,26267;1875,22788;0,10040
338,30802;11,27663;1876,13666;0,10058
338,70802;11,29030;1876,73513;0,10075
339,10802;11,30398;1876,01447;0,10091
339,50802;11,31765;1876,55967;0,10109
339,90802;11,32990;1875,27500;0,10125
340,30802;11,34358;1875,51305;0,10142
340,70802;11,35668;1875,02746;0,10158
341,10802;11,37007;1874,85516;0,10176
341,50802;11,38375;1874,78308;0,10192
341,90802;11,39714;1874,96468;0,10209
342,30802;11,41081;1874,09986;0,10226
342,70802;11,42363;1874,18144;0,10243
343,10802;11,43703;1873,47326;0,10259
343,50802;11,44985;1873,54535;0,10276
343,90802;11,46352;1873,50139;0,10293
344,30802;11,47606;1872,27000;0,10309
344,70802;11,49002;1873,04709;0,10326
345,10802;11,50341;1872,11651;0,10343
345,50802;11,51708;1873,11918;0,10361
345,90802;11,53076;1872,77757;0,10378
346,30802;11,54358;1871,90659;0,10394
346,70802;11,55725;1871,88461;0,10411
347,10802;11,57007;1871,80620;0,10427
347,50802;11,58375;1871,50538;0,10445
347,90802;11,59714;1871,22021;0,10462
348,30802;11,60939;1870,36488;0,10478
348,70802;11,62420;1871,09187;0,10496
349,10802;11,63674;1870,49340;0,10512
349,50802;11,65042;1870,18625;0,10529
349,90802;11,66295;1868,94238;0,10545
350,30802;11,67691;1870,35538;0,10562
350,70802;11,69002;1868,71048;0,10579
351,10802;11,70284;1868,65404;0,10595
351,50802;11,71651;1868,10251;0,10612
351,90802;11,73019;1869,66918;0,10629
352,30802;11,74415;1869,37787;0,10647
352,70802;11,75697;1869,25251;0,10663
353,10802;11,77064;1867,86745;0,10680
353,50802;11,78318;1867,71080;0,10696
353,90802;11,79714;1867,92705;0,10713
354,30802;11,81053;1868,31560;0,10730
354,70802;11,82363;1867,26898;0,10747
355,10802;11,83702;1867,15312;0,10763
355,50802;11,84984;1866,85231;0,10780
355,90802;11,86380;1866,88043;0,10797
356,30802;11,87634;1866,28196;0,10813
356,70802;11,89030;1866,60793;0,10831
357,10802;11,90369;1866,16927;0,10847
357,50802;11,91680;1866,82418;0,10864
357,90802;11,92962;1865,26682;0,10880
358,30802;11,94301;1865,55814;0,10897
358,70802;11,95725;1866,39167;0,10915
359,10802;11,96979;1865,84964;0,10931
359,50802;11,98432;1866,08769;0,10949
359,90802;11,99685;1864,85313;0,10965
360,30802;12,01081;1865,71181;0,10982
360,70802;12,02335;1864,23268;0,10998
361,10802;12,03674;1864,88144;0,11015
361,50802;12,05070;1864,39883;0,11032
361,90802;12,06324;1864,14812;0,11049
362,30802;12,07719;1864,45843;0,11066
362,70802;12,09002;1864,26416;0,11082
363,10802;12,10341;1863,94453;0,11099
363,50802;12,11651;1863,17991;0,11116
363,90802;12,13019;1863,84730;0,11133
364,30802;12,14301;1863,64688;0,11150
364,70802;12,15640;1862,89158;0,11166
365,10802;12,17007;1863,29596;0,11183
365,50802;12,18346;1862,34638;0,11201
365,90802;12,19742;1863,03258;0,11218
366,30802;12,20996;1863,21437;0,11234
366,70802;12,22420;1862,76939;0,11252
367,10802;12,23674;1862,95118;0,11268
367,50802;12,25041;1862,99514;0,11285
367,90802;12,26380;1862,57213;0,11302
368,30802;12,27634;1861,12132;0,11318
368,70802;12,29030;1862,62224;0,11335
369,10802;12,30340;1861,90773;0,11352
369,50802;12,31737;1862,07071;0,11370
369,90802;12,32990;1861,27797;0,11386
370,30802;12,34358;1861,32491;0,11403
370,70802;12,35640;1860,82665;0,11420
371,10802;12,36979;1861,12132;0,11437
371,50802;12,38318;1860,40066;0,11453
371,90802;12,39657;1860,00895;0,11470
372,30802;12,41081;1861,16509;0,11488
372,70802;12,42392;1860,54464;0,11505
373,10802;12,43788;1860,64504;0,11523
373,50802;12,44984;1860,26897;0,11538
373,90802;12,46409;1860,78921;0,11556
374,30802;12,47691;1860,64504;0,11573
374,70802;12,49002;1860,58860;0,11589
375,10802;12,50341;1859,26948;0,11606
375,50802;12,51680;1860,27531;0,11623
375,90802;12,53047;1860,12480;0,11641
376,30802;12,54358;1860,08420;0,11657
376,70802;12,55697;1859,93686;0,11675
377,10802;12,57036;1859,64238;0,11691
377,50802;12,58318;1858,76172;0,11708
377,90802;12,59600;1858,26663;0,11724
378,30802;12,60967;1858,86528;0,11742
378,70802;12,62363;1859,23800;0,11759
379,10802;12,63702;1859,05956;0,11776
379,50802;12,65127;1859,82399;0,11794
379,90802;12,66352;1858,38901;0,11810
380,30802;12,67719;1858,40763;0,11827
380,70802;12,69001;1857,74658;0,11843
381,10802;12,70340;1858,63022;0,11860
381,50802;12,71708;1858,18840;0,11877
381,90802;12,73019;1858,86528;0,11894
382,30802;12,74414;1857,92837;0,11911
382,70802;12,75697;1858,38267;0,11928
383,10802;12,77036;1856,85661;0,11945
383,50802;12,78346;1856,43993;0,11961
383,90802;12,79714;1857,11365;0,11979
384,30802;12,80939;1856,13278;0,11994
384,70802;12,82306;1856,49637;0,12012
385,10802;12,83674;1856,36468;0,12029
385,50802;12,85041;1857,10732;0,12046
385,90802;12,86409;1857,23584;0,12063
386,30802;12,87662;1855,43410;0,12079
386,70802;12,89087;1855,82899;0,12097
387,10802;12,90312;1855,09566;0,12113
387,50802;12,91679;1855,56263;0,12130
387,90802;12,93019;1855,71294;0,12147
388,30802;12,94301;1854,18390;0,12163
388,70802;12,95725;1855,37767;0,12181
389,10802;12,97036;1855,43727;0,12198
389,50802;12,98403;1855,66600;0,12214
389,90802;12,99657;1853,68881;0,12231
390,30802;13,01024;1854,66632;0,12248
390,70802;13,02278;1853,91121;0,12264
391,10802;13,03645;1854,11815;0,12282
391,50802;13,04956;1853,97398;0,12298
391,90802;13,06352;1854,30609;0,12316
392,30802;13,07748;1854,18706;0,12334
392,70802;13,09001;1853,82348;0,12350
393,10802;13,10397;1853,15609;0,12367
393,50802;13,11651;1853,53216;0,12383
393,90802;13,13018;1853,60722;0,12400
394,30802;13,14386;1853,55712;0,12418
394,70802;13,15725;1853,56028;0,12435
395,10802;13,17064;1854,07735;0,12451
395,50802;13,18346;1853,00875;0,12468
395,90802;13,19714;1853,25332;0,12486
396,30802;13,20996;1852,70496;0,12502
396,70802;13,22335;1852,89606;0,12519
397,10802;13,23674;1852,59841;0,12536
397,50802;13,24984;1853,55097;0,12553
397,90802;13,26295;1852,01559;0,12569
398,30802;13,27662;1852,76438;0,12587
398,70802;13,29058;1853,74524;0,12605
399,10802;13,30340;1851,97480;0,12621
399,50802;13,31765;1853,47255;0,12639
399,90802;13,32990;1851,97797;0,12655
400,30802;13,34386;1852,32256;0,12672
400,70802;13,35668;1852,71744;0,12689
401,10802;13,37036;1852,62021;0,12706
401,50802;13,38403;1852,19720;0,12724
401,90802;13,39685;1851,45773;0,12741
402,30802;13,41081;1852,47920;0,12758
402,70802;13,42335;1851,79934;0,12774
403,10802;13,43674;1851,83063;0,12791
403,50802;13,44984;1851,62388;0,12807
403,90802;13,46380;1851,73973;0,12826
404,30802;13,47634;1850,89689;0,12842
404,70802;13,48973;1852,07184;0,12859
405,10802;13,50340;1851,50485;0,12876
405,50802;13,51708;1851,05987;0,12893
405,90802;13,53075;1852,12214;0,12911
406,30802;13,54300;1850,79351;0,12927
406,70802;13,55725;1851,85894;0,12945
407,10802;13,57036;1852,12214;0,12962
407,50802;13,58403;1851,57694;0,12979
407,90802;13,59685;1851,44525;0,12996
408,30802;13,60967;1850,31090;0,13012
408,70802;13,62392;1850,47388;0,13030
409,10802;13,63674;1850,47388;0,13046
409,50802;13,65070;1851,00026;0,13064
409,90802;13,66323;1850,17623;0,13080
410,30802;13,67691;1850,37684;0,13098
410,70802;13,69030;1850,53032;0,13115
411,10802;13,70312;1850,60240;0,13132
411,50802;13,71651;1849,45241;0,13148
411,90802;13,73018;1850,41130;0,13165
412,30802;13,74414;1849,81581;0,13183
412,70802;13,75668;1848,80700;0,13199
413,10802;13,77035;1849,69679;0,13216
413,50802;13,78346;1849,17040;0,13233
413,90802;13,79742;1849,46172;0,13251
414,30802;13,81024;1849,22367;0,13267
414,70802;13,82363;1848,94484;0,13284
415,10802;13,83702;1848,86325;0,13301
415,50802;13,84984;1848,83829;0,13318
415,90802;13,86352;1848,35885;0,13335
416,30802;13,87634;1849,21734;0,13352
416,70802;13,89058;1849,50884;0,13369
417,10802;13,90369;1848,62837;0,13386
417,50802;13,91679;1848,73175;0,13403
417,90802;13,92961;1848,32439;0,13419
418,30802;13,94301;1847,77919;0,13436
418,70802;13,95696;1848,76937;0,13454
419,10802;13,97007;1848,36201;0,13470
419,50802;13,98460;1848,51550;0,13489
419,90802;13,99657;1847,50035;0,13504
420,30802;14,01053;1848,44658;0,13522
420,70802;14,02335;1848,03922;0,13539
421,10802;14,03674;1847,55046;0,13555
421,50802;14,05041;1847,48769;0,13572
421,90802;14,06323;1847,43442;0,13590
422,30802;14,07719;1847,70394;0,13607
422,70802;14,09001;1847,32787;0,13623
423,10802;14,10369;1847,45956;0,13641
423,50802;14,11679;1847,94217;0,13658
423,90802;14,13018;1847,33737;0,13675
424,30802;14,14272;1845,87408;0,13691
424,70802;14,15639;1847,26845;0,13708
425,10802;14,17007;1847,25281;0,13726
425,50802;14,18346;1846,64484;0,13743
425,90802;14,19770;1847,37500;0,13761
426,30802;14,20996;1847,18687;0,13777
426,70802;14,22420;1846,72941;0,13795
427,10802;14,23674;1846,54146;0,13811
427,50802;14,25041;1846,22183;0,13828
427,90802;14,26352;1846,11212;0,13845
428,30802;14,27605;1845,03421;0,13861
428,70802;14,29058;1846,24381;0,13879
429,10802;14,30340;1845,91468;0,13896
429,50802;14,31736;1846,19054;0,13913
429,90802;14,33018;1846,94566;0,13930
430,30802;14,34386;1846,42542;0,13948
430,70802;14,35611;1845,28809;0,13963
431,10802;14,36950;1845,62337;0,13980
431,50802;14,38318;1844,71458;0,13998
431,90802;14,39685;1845,82695;0,14015
432,30802;14,41081;1845,85843;0,14033
432,70802;14,42363;1845,31622;0,14049
433,10802;14,43759;1845,38215;0,14067
433,50802;14,44956;1845,05302;0,14082
433,90802;14,46380;1845,55128;0,14100
434,30802;14,47691;1844,97777;0,14116
434,70802;14,49001;1844,26028;0,14132
434,73602;14,49115;1094,66035;0,14432