File: 02_Appendices/Appendix_C_Experimental_Data_and_Analysis Reports/C_1_Materials_Tests/C_1_1_Tensile_tests/C_1_1_4_Impact Smooth 3D2/Specimen_RawData_6.csv
Text Inputs : Specimen label;"1"
Dimension : Length;50,00000;mm
Dimension : Final length;100,00000;mm
Test : Rate 1;4,00000;mm/min
General : Unique Identifier;"{755CE41D-BCD3-46ED-8E53-0074CC35562D}"

Time;Extension;Load;Strain 1
(sec);(mm);(N);(mm/mm)
0,00000;0,00000;-8,83795;-0,00064
0,30000;0,01678;-6,52862;-0,00058
0,60000;0,03877;4,89271;-0,00024
0,90000;0,05960;14,55307;0,00009
1,20000;0,08003;24,70537;0,00041
1,50000;0,10003;32,84287;0,00071
1,80000;0,12003;40,81745;0,00101
2,10000;0,14006;49,37797;0,00130
2,40000;0,15997;57,28672;0,00159
2,70000;0,18009;65,19549;0,00189
3,00000;0,19991;73,46147;0,00218
3,30000;0,21997;80,16074;0,00247
3,60000;0,23997;87,65903;0,00273
3,90000;0,25991;94,10448;0,00300
4,20000;0,28006;100,34000;0,00321
4,50000;0,30003;99,91071;0,00327
4,80000;0,32006;100,49040;0,00333
5,10000;0,33997;100,92282;0,00337
5,40000;0,35997;100,70034;0,00339
5,70000;0,38006;99,90132;0,00342
6,00000;0,39997;99,60050;0,00343
6,30000;0,41997;100,36819;0,00346
6,60000;0,43994;100,67214;0,00349
6,90000;0,45997;100,17706;0,00351
7,20000;0,48003;100,64393;0,00353
7,50000;0,50000;100,01098;0,00355
7,80000;0,52006;100,66273;0,00358
8,10000;0,54000;101,91611;0,00361
8,40000;0,55997;101,74064;0,00363
8,70000;0,58003;102,62113;0,00368
9,00000;0,60000;103,60189;0,00373
9,30000;0,61997;106,40630;0,00383
9,60000;0,63994;111,52945;0,00398
9,90000;0,65994;115,62485;0,00414
10,20000;0,68003;122,01390;0,00437
10,50000;0,69997;128,36849;0,00461
10,80000;0,72003;135,97645;0,00486
11,10000;0,74008;143,83508;0,00513
11,40000;0,75997;150,99809;0,00539
11,70000;0,78000;157,64722;0,00566
12,00000;0,79997;164,05194;0,00593
12,30000;0,81997;171,74763;0,00620
12,60000;0,83994;179,01718;0,00647
12,90000;0,85991;186,19898;0,00674
13,20000;0,88008;193,11759;0,00702
13,50000;0,90006;199,81684;0,00729
13,80000;0,92003;206,21216;0,00756
14,10000;0,94006;213,18090;0,00783
14,40000;0,95997;220,60713;0,00810
14,70000;0,98000;226,53244;0,00837
15,00000;0,99997;233,10010;0,00864
15,30000;1,02003;239,76176;0,00891
15,60000;1,04000;246,26988;0,00917
15,90000;1,05986;252,69655;0,00944
16,20000;1,08003;259,36135;0,00970
16,50000;1,10003;265,51224;0,00997
16,80000;1,12003;271,96084;0,01024
17,10000;1,14006;277,88302;0,01051
17,40000;1,16000;284,39742;0,01077
17,70000;1,18006;290,22559;0,01103
18,00000;1,19991;296,01615;0,01130
18,30000;1,22000;303,06636;0,01157
18,60000;1,23997;309,50555;0,01182
18,90000;1,25991;315,76613;0,01209
19,20000;1,28003;321,26529;0,01235
19,50000;1,30003;327,19374;0,01262
19,80000;1,32011;333,48878;0,01288
20,10000;1,33997;340,10971;0,01314
20,40000;1,35994;344,75971;0,01340
20,70000;1,38006;350,60043;0,01367
21,00000;1,39997;357,16495;0,01393
21,30000;1,41997;363,19681;0,01420
21,60000;1,43997;369,23178;0,01446
21,90000;1,45994;375,42656;0,01472
22,20000;1,48003;381,12625;0,01498
22,50000;1,50000;386,01439;0,01524
22,80000;1,52006;391,87078;0,01550
23,10000;1,54000;398,48858;0,01576
23,40000;1,55997;403,02263;0,01603
23,70000;1,58003;408,39957;0,01628
24,00000;1,60003;414,21209;0,01654
24,30000;1,61997;420,50402;0,01681
24,60000;1,63994;426,24446;0,01707
24,90000;1,65994;431,54620;0,01732
25,20000;1,68000;436,68500;0,01759
25,50000;1,70003;442,12779;0,01785
25,80000;1,72006;448,31629;0,01811
26,10000;1,74008;453,84681;0,01837
26,40000;1,75997;459,18613;0,01863
26,70000;1,78000;464,51609;0,01889
27,00000;1,80000;469,26639;0,01915
27,30000;1,81997;475,01307;0,01941
27,60000;1,83991;480,41823;0,01967
27,90000;1,85991;487,01097;0,01992
28,20000;1,88008;491,15336;0,02018
28,50000;1,90005;496,72457;0,02044
28,80000;1,92003;501,09257;0,02071
29,10000;1,94003;507,26542;0,02096
29,40000;1,95994;512,26951;0,02122
29,70000;1,98003;516,86624;0,02148
30,00000;1,99997;522,25576;0,02174
30,30000;2,02005;528,45990;0,02200
30,60000;2,03997;533,74916;0,02225
30,90000;2,05985;538,51823;0,02251
31,20000;2,08005;542,85801;0,02276
31,50000;2,10003;547,77120;0,02302
31,80000;2,12003;552,87555;0,02328
32,10000;2,14005;558,68807;0,02354
32,40000;2,16000;562,88685;0,02379
32,70000;2,18005;567,33945;0,02405
33,00000;2,19991;573,11435;0,02430
33,30000;2,21997;577,54191;0,02456
33,60000;2,23997;583,89334;0,02482
33,90000;2,25991;588,05766;0,02508
34,20000;2,28003;592,52908;0,02533
34,50000;2,30003;597,99063;0,02559
34,80000;2,32005;601,90740;0,02584
35,10000;2,34000;607,76691;0,02610
35,40000;2,35997;611,30142;0,02636
35,70000;2,38005;616,05168;0,02662
36,00000;2,39997;621,71691;0,02687
36,30000;2,41997;626,06926;0,02712
36,60000;2,43994;630,69104;0,02738
36,90000;2,45997;634,54206;0,02763
37,20000;2,48000;639,33618;0,02788
37,50000;2,50000;643,96425;0,02814
37,80000;2,52008;648,57667;0,02839
38,10000;2,54003;652,38690;0,02865
38,40000;2,55997;657,12775;0,02891
38,70000;2,58005;661,95950;0,02917
39,00000;2,60000;666,04866;0,02942
39,30000;2,61997;671,12478;0,02968
39,60000;2,63994;676,71482;0,02994
39,90000;2,65991;679,20587;0,03020
40,20000;2,68003;683,89978;0,03046
40,50000;2,70003;688,27090;0,03071
40,80000;2,72005;692,64830;0,03098
41,10000;2,74008;696,67785;0,03124
41,40000;2,75997;701,12734;0,03149
41,70000;2,78000;705,73660;0,03176
42,00000;2,79997;709,72233;0,03201
42,30000;2,81997;714,13419;0,03228
42,60000;2,83994;718,71527;0,03254
42,90000;2,85991;722,32182;0,03280
43,20000;2,88005;726,98435;0,03306
43,50000;2,90005;730,83537;0,03333
43,80000;2,92003;735,20648;0,03359
44,10000;2,94008;739,30188;0,03385
44,40000;2,95997;743,87668;0,03411
44,70000;2,98000;748,21957;0,03438
45,00000;2,99997;752,53430;0,03464
45,30000;3,02002;756,18788;0,03491
45,60000;3,03997;761,46773;0,03518
45,90000;3,05985;764,83614;0,03544
46,20000;3,08005;769,24800;0,03571
46,50000;3,10002;772,61017;0,03598
46,80000;3,12005;777,26333;0,03624
47,10000;3,14003;781,17694;0,03652
47,40000;3,16000;784,05347;0,03678
47,70000;3,18005;789,19223;0,03706
48,00000;3,19991;793,05265;0,03732
48,30000;3,22000;796,49314;0,03760
48,60000;3,23997;801,89202;0,03788
48,90000;3,25991;805,27300;0,03815
49,20000;3,28002;808,59754;0,03842
49,50000;3,30002;812,52689;0,03870
49,80000;3,32011;816,76636;0,03897
50,10000;3,33997;820,79908;0,03924
50,40000;3,35994;824,33987;0,03951
50,70000;3,38002;828,57944;0,03980
51,00000;3,39997;831,83507;0,04007
51,30000;3,42000;835,99621;0,04035
51,60000;3,43994;840,30470;0,04063
51,90000;3,45991;843,30961;0,04090
52,20000;3,48000;847,44887;0,04118
52,50000;3,50002;851,11503;0,04146
52,80000;3,52008;854,89079;0,04174
53,10000;3,54002;858,66340;0,04202
53,40000;3,55994;862,05378;0,04230
53,70000;3,58000;865,17464;0,04260
54,00000;3,60002;869,70879;0,04288
54,30000;3,61997;872,69805;0,04316
54,60000;3,63994;876,55531;0,04345
54,90000;3,65991;879,42546;0,04374
55,20000;3,68002;883,44254;0,04402
55,50000;3,70002;886,35040;0,04431
55,80000;3,72002;890,48026;0,04460
56,10000;3,74008;894,36565;0,04489
56,40000;3,75997;897,32986;0,04517
56,70000;3,78000;900,04345;0,04546
57,00000;3,80000;903,78784;0,04575
57,30000;3,81997;908,67607;0,04604
57,60000;3,83991;910,62812;0,04634
57,90000;3,85991;914,24417;0,04663
58,20000;3,88008;917,49979;0,04692
58,50000;3,90005;921,16268;0,04721
58,80000;3,92002;923,72904;0,04751
59,10000;3,94002;927,65521;0,04780
59,40000;3,95997;930,21831;0,04809
59,70000;3,98002;932,82219;0,04839
60,00000;3,99994;936,38487;0,04869
60,30000;4,02002;940,61503;0,04899
60,60000;4,03997;943,32853;0,04929
60,90000;4,05985;945,87291;0,04959
61,20000;4,08005;949,07219;0,04989
61,50000;4,10005;953,07976;0,05018
61,80000;4,12005;955,23875;0,05049
62,09600;4,13977;958,76073;0,05079
62,30800;4,15367;960,86012;0,05100
62,60800;4,17370;962,89683;0,05130
62,90800;4,19364;966,61933;0,05161
63,20800;4,21376;969,29837;0,05191
63,50800;4,23378;972,71698;0,05222
63,80800;4,25373;975,14847;0,05253
64,10800;4,27376;977,20092;0,05283
64,40800;4,29373;980,31238;0,05313
64,70800;4,31378;983,53671;0,05345
65,00800;4,33370;986,29408;0,05375
65,30800;4,35367;990,08558;0,05407
65,60800;4,37370;991,67107;0,05438
65,90800;4,39367;995,03323;0,05470
66,20800;4,41376;997,59009;0,05501
66,50800;4,43378;1000,47914;0,05533
66,80800;4,45378;1002,89183;0,05564
67,10800;4,47376;1005,54898;0,05595
67,40800;4,49370;1007,86146;0,05627
67,70800;4,51376;1011,39285;0,05659
68,00800;4,53370;1013,83068;0,05691
68,30800;4,55367;1015,68252;0,05722
68,60800;4,57370;1018,31770;0,05754
68,90800;4,59367;1021,07823;0,05786
69,20800;4,61378;1023,27168;0,05818
69,50800;4,63376;1026,21084;0,05851
69,80800;4,65378;1028,10971;0,05883
70,10800;4,67376;1030,81698;0,05915
70,40800;4,69373;1033,01350;0,05948
70,70800;4,71373;1035,87117;0,05981
71,00800;4,73378;1038,54397;0,06014
71,30800;4,75370;1039,91954;0,06046
71,60800;4,77370;1041,76514;0,06079
71,90800;4,79367;1044,44735;0,06112
72,20800;4,81375;1046,53426;0,06145
72,50800;4,83378;1048,73702;0,06179
72,80800;4,85376;1051,41923;0,06212
73,10800;4,87378;1053,21780;0,06245
73,40800;4,89375;1056,00031;0,06279
73,70800;4,91373;1058,16862;0,06312
74,00800;4,93375;1060,18968;0,06346
74,30800;4,95367;1061,80655;0,06379
74,60800;4,97367;1062,45512;0,06412
74,90800;4,99367;1065,68569;0,06446
75,20800;5,01378;1066,53171;0,06480
75,50800;5,03384;1069,64326;0,06515
75,80800;5,05373;1071,59223;0,06548
76,10800;5,07375;1073,25921;0,06583
76,40800;5,09373;1075,50900;0,06616
76,70800;5,11375;1077,48304;0,06651
77,00800;5,13373;1079,77986;0,06686
77,30800;5,15367;1080,86085;0,06720
77,60800;5,17370;1083,40215;0,06755
77,90800;5,19364;1084,42362;0,06789
78,20800;5,21375;1086,03109;0,06824
78,50800;5,23378;1087,92679;0,06859
78,80800;5,25375;1089,88201;0,06894
79,10800;5,27375;1091,58037;0,06929
79,40800;5,29373;1093,52935;0,06963
79,70800;5,31378;1094,65737;0,06998
80,00800;5,33370;1096,57506;0,07033
80,30800;5,35364;1097,69050;0,07068
80,60800;5,37370;1099,27915;0,07104
80,90800;5,39367;1101,06831;0,07139
81,20800;5,41375;1102,82935;0,07175
81,50800;5,43375;1103,91034;0,07211
81,80800;5,45378;1104,89745;0,07247
82,10800;5,47375;1107,18478;0,07282
82,40800;5,49373;1108,57291;0,07318
82,70800;5,51381;1109,79807;0,07354
83,00800;5,53373;1111,75021;0,07390
83,30800;5,55364;1112,39254;0,07426
83,60800;5,57367;1113,67097;0,07462
83,90800;5,59373;1115,19694;0,07499
84,20800;5,61378;1115,87690;0,07535
84,50800;5,63375;1117,07393;0,07571
84,80800;5,65373;1119,22342;0,07608
85,10800;5,67375;1120,29817;0,07644
85,40800;5,69373;1121,68631;0,07681
85,70800;5,71375;1122,90829;0,07718
86,00800;5,73378;1124,67874;0,07754
86,30800;5,75370;1125,26463;0,07791
86,60800;5,77364;1126,44909;0,07829
86,90800;5,79367;1127,42046;0,07866
87,20800;5,81375;1128,01269;0,07903
87,50800;5,83378;1128,89633;0,07940
87,80800;5,85375;1130,68232;0,07977
88,10800;5,87378;1131,35288;0,08014
88,40800;5,89378;1131,94827;0,08052
88,70800;5,91375;1134,38610;0,08090
89,00800;5,93370;1134,89991;0,08127
89,30800;5,95370;1135,49214;0,08164
89,60800;5,97370;1137,23436;0,08202
89,90800;5,99367;1137,78273;0,08240
90,20800;6,01378;1137,78273;0,08278
90,50800;6,03378;1138,71647;0,08317
90,80800;6,05370;1140,33958;0,08355
91,10800;6,07378;1141,08529;0,08394
91,40800;6,09375;1142,27915;0,08432
91,70800;6,11375;1143,31944;0,08470
92,00800;6,13370;1143,37588;0,08508
92,30800;6,15364;1144,47568;0,08546
92,60800;6,17373;1146,11136;0,08585
92,90800;6,19364;1146,26493;0,08623
93,20800;6,21378;1146,71923;0,08662
93,50800;6,23381;1147,45870;0,08701
93,80800;6,25373;1148,72465;0,08740
94,10800;6,27375;1149,37639;0,08779
94,40800;6,29373;1150,58273;0,08818
94,70800;6,31375;1151,38805;0,08857
95,00800;6,33370;1151,19694;0,08896
95,30800;6,35370;1152,36882;0,08935
95,60800;6,37372;1154,07649;0,08974
95,90800;6,39370;1153,98569;0,09014
96,20800;6,41372;1154,31156;0,09053
96,50800;6,43378;1155,34551;0,09093
96,80800;6,45378;1155,92210;0,09132
97,10800;6,47375;1156,21034;0,09172
97,40800;6,49370;1157,00318;0,09211
97,70800;6,51375;1158,69520;0,09251
98,00800;6,53370;1158,48212;0,09290
98,30800;6,55370;1157,99960;0,09330
98,60800;6,57370;1159,14950;0,09370
98,90800;6,59370;1159,21851;0,09410
99,20800;6,61378;1159,51616;0,09450
99,50800;6,63375;1161,12046;0,09490
99,80800;6,65375;1161,11422;0,09530
100,10800;6,67375;1162,10748;0,09570
100,40800;6,69372;1162,43027;0,09610
100,70800;6,71375;1163,95624;0,09651
101,00800;6,73378;1164,20062;0,09691
101,30800;6,75370;1164,34479;0,09731
101,60800;6,77364;1163,98130;0,09771
101,90800;6,79367;1164,56412;0,09812
102,20800;6,81375;1163,95624;0,09853
102,50800;6,83381;1164,20686;0,09894
102,80800;6,85375;1165,58876;0,09934
103,10800;6,87378;1165,82690;0,09975
103,40800;6,89375;1166,54756;0,10016
103,70800;6,91372;1166,56637;0,10057
104,00800;6,93375;1167,43119;0,10098
104,30800;6,95367;1167,33406;0,10139
104,60800;6,97370;1167,94817;0,10180
104,90800;6,99367;1168,47148;0,10221
105,20800;7,01378;1167,93253;0,10262
105,50801;7,03384;1168,09234;0,10304
105,80801;7,05372;1168,64070;0,10344
106,10801;7,07375;1170,06954;0,10386
106,40801;7,09372;1169,46474;0,10427
106,70801;7,11375;1170,24817;0,10469
107,00801;7,13372;1170,68058;0,10511
107,30801;7,15370;1171,08477;0,10552
107,60801;7,17372;1171,01893;0,10594
107,90801;7,19364;1171,29153;0,10635
108,20801;7,21375;1170,79336;0,10677
108,50801;7,23378;1170,56463;0,10719
108,80801;7,25372;1172,08119;0,10761
109,10801;7,27372;1171,59234;0,10802
109,40801;7,29372;1171,72087;0,10844
109,70801;7,31381;1171,60492;0,10886
110,00801;7,33370;1172,12189;0,10928
110,30801;7,35370;1173,17792;0,10970
110,60801;7,37370;1173,75134;0,11012
110,90801;7,39364;1173,66361;0,11054
111,20801;7,41375;1172,85205;0,11096
111,50801;7,43381;1172,87710;0,11139
111,80801;7,45378;1172,57936;0,11181
112,10801;7,47375;1173,50062;0,11224
112,40801;7,49370;1175,04224;0,11266
112,70801;7,51375;1174,16801;0,11308
113,00801;7,53375;1173,91739;0,11351
113,30801;7,55364;1174,69132;0,11393
113,60801;7,57367;1174,36228;0,11435
113,90801;7,59372;1174,32475;0,11478
114,20801;7,61378;1173,57578;0,11521
114,50801;7,63375;1173,91739;0,11563
114,80801;7,65375;1174,24009;0,11606
115,10801;7,67375;1174,61616;0,11649
115,40801;7,69372;1175,31484;0,11691
115,70801;7,71375;1175,87885;0,11734
116,00801;7,73375;1174,68191;0,11777
116,30801;7,75369;1175,15195;0,11820
116,60801;7,77367;1175,31801;0,11863
116,90801;7,79369;1175,58436;0,11905
117,20801;7,81375;1174,27148;0,11948
117,50801;7,83378;1175,20206;0,11991
117,80801;7,85372;1175,70031;0,12034
118,10801;7,87381;1174,86054;0,12077
118,40801;7,89378;1174,88876;0,12120
118,70801;7,91372;1176,30502;0,12163
119,00801;7,93369;1175,99173;0,12206
119,30801;7,95369;1175,41514;0,12249
119,60801;7,97369;1175,58436;0,12292
119,90801;7,99367;1176,29878;0,12336
120,20801;8,01378;1175,68457;0,12379
120,50801;8,03381;1175,62506;0,12423
120,80801;8,05369;1176,14213;0,12466
121,10801;8,07375;1176,12332;0,12509
121,40801;8,09375;1176,08886;0,12553
121,70801;8,11375;1175,93845;0,12596
122,00801;8,13369;1175,63764;0,12640
122,30801;8,15367;1175,51228;0,12683
122,60801;8,17375;1176,34889;0,12727
122,90801;8,19364;1176,01678;0,12770
123,20801;8,21375;1174,85113;0,12814
123,50801;8,23381;1175,06105;0,12858
123,80801;8,25372;1175,86954;0,12902
124,10801;8,27375;1175,63140;0,12946
124,40801;8,29372;1175,98232;0,12989
124,70801;8,31378;1174,75400;0,13033
125,00801;8,33369;1175,17700;0,13077
125,30801;8,35367;1175,15819;0,13121
125,60801;8,37369;1175,36187;0,13165
125,90801;8,39367;1174,95768;0,13209
126,20801;8,41372;1175,12373;0,13253
126,50801;8,43378;1174,59418;0,13296
126,80801;8,45378;1174,69756;0,13341
127,10801;8,47375;1174,91689;0,13385
127,40801;8,49372;1176,18907;0,13429
127,70801;8,51375;1175,49971;0,13473
128,00801;8,53369;1175,61258;0,13517
128,30801;8,55369;1174,46259;0,13561
128,60801;8,57369;1175,06105;0,13605
128,90801;8,59369;1174,97016;0,13650
129,20801;8,61378;1174,77905;0,13694
129,50801;8,63375;1175,78804;0,13738
129,80801;8,65375;1174,74776;0,13782
130,10801;8,67375;1175,36504;0,13827
130,40801;8,69372;1174,86995;0,13872
130,70801;8,71375;1174,94203;0,13916
131,00801;8,73378;1175,30860;0,13961
131,30801;8,75369;1174,36862;0,14004
131,60801;8,77366;1174,52210;0,14049
131,90801;8,79366;1174,47516;0,14094
132,20801;8,81375;1173,63846;0,14139
132,50801;8,83378;1173,54766;0,14184
132,80801;8,85372;1174,69449;0,14228
133,10801;8,87378;1174,74459;0,14272
133,40801;8,89375;1175,27731;0,14316
133,70801;8,91372;1174,74776;0,14361
134,00801;8,93375;1173,83590;0,14405
134,30801;8,95366;1174,08661;0,14450
134,60801;8,97366;1174,31842;0,14494
134,90801;8,99369;1173,72312;0,14540
135,20801;9,01378;1172,77680;0,14585
135,50801;9,03384;1172,62956;0,14629
135,80801;9,05369;1173,69173;0,14674
136,10801;9,07372;1173,59459;0,14718
136,40801;9,09375;1173,49746;0,14764
136,70801;9,11375;1173,63222;0,14808
137,00801;9,13372;1173,59459;0,14853
137,30801;9,15372;1173,33140;0,14897
137,60801;9,17372;1173,05564;0,14942
137,90801;9,19364;1172,74551;0,14987
138,20801;9,21381;1172,21596;0,15033
138,50801;9,23381;1172,59817;0,15078
138,80801;9,25372;1172,38509;0,15122
139,10801;9,27372;1173,20297;0,15167
139,40801;9,29372;1172,26923;0,15212
139,70801;9,31384;1171,36678;0,15257
140,00801;9,33372;1172,49796;0,15303
140,30801;9,35364;1171,58294;0,15347
140,60801;9,37369;1172,07495;0,15392
140,90801;9,39364;1171,45134;0,15437
141,20801;9,41375;1170,77455;0,15483
141,50801;9,43378;1171,10983;0,15529
141,80801;9,45378;1170,87485;0,15573
142,10801;9,47375;1171,23825;0,15619
142,40801;9,49372;1170,99704;0,15663
142,70801;9,51375;1171,23201;0,15709
143,00801;9,53372;1170,89357;0,15755
143,30801;9,55366;1171,22578;0,15800
143,60801;9,57369;1170,49254;0,15845
143,90801;9,59372;1171,14428;0,15890
144,20801;9,61378;1170,83406;0,15936
144,50801;9,63378;1170,84347;0,15981
144,80801;9,65372;1171,04398;0,16026
145,10801;9,67375;1170,49254;0,16072
145,40801;9,69372;1170,44244;0,16117
145,70801;9,71375;1170,77455;0,16163
146,00801;9,73375;1170,49878;0,16208
146,30801;9,75369;1170,05389;0,16253
146,60801;9,77364;1170,66177;0,16298
146,90801;9,79369;1169,84705;0,16344
147,20801;9,81375;1169,21719;0,16389
147,50801;9,83375;1169,64020;0,16435
147,80801;9,85375;1169,39275;0,16480
148,10801;9,87381;1170,15727;0,16526
148,40801;9,89378;1169,70921;0,16572
148,70801;9,91375;1170,01310;0,16617
149,00801;9,93375;1169,49612;0,16663
149,30801;9,95369;1169,69664;0,16709
149,60801;9,97369;1169,63396;0,16754
149,90801;9,99366;1168,88192;0,16800
150,20801;10,01375;1169,56821;0,16845
150,50801;10,03378;1169,76248;0,16892
150,80801;10,05372;1169,59633;0,16937
151,10801;10,07378;1168,95093;0,16983
151,40801;10,09375;1168,79418;0,17028
151,70801;10,11375;1168,70645;0,17074
152,00801;10,13372;1168,44010;0,17120
152,30801;10,15366;1168,59991;0,17165
152,60801;10,17375;1168,84122;0,17211
152,90801;10,19363;1168,46208;0,17257
153,20801;10,21375;1167,48130;0,17302
153,50801;10,23378;1168,49970;0,17348
153,80801;10,25369;1168,77230;0,17394
154,10801;10,27375;1167,94510;0,17439
154,40801;10,29378;1168,11423;0,17485
154,70801;10,31381;1168,12056;0,17531
155,00801;10,33372;1168,29285;0,17576
155,30801;10,35366;1168,28037;0,17622
155,60801;10,37372;1168,76289;0,17668
155,90801;10,39369;1167,63487;0,17714
156,20801;10,41372;1167,64735;0,17759
156,50801;10,43375;1167,33713;0,17806
156,80801;10,45375;1167,30584;0,17852
157,10801;10,47375;1167,65676;0,17897
157,40801;10,49372;1167,37476;0,17942
157,70801;10,51381;1166,65093;0,17988
158,00801;10,53375;1167,13038;0,18034
158,30801;10,55369;1167,04265;0,18080
158,60801;10,57369;1166,58201;0,18125
158,90801;10,59372;1167,07394;0,18171
159,20801;10,61378;1166,57577;0,18217
159,50801;10,63375;1166,60399;0,18262
159,80801;10,65375;1167,22751;0,18308
160,10801;10,67375;1166,89540;0,18354
160,40801;10,69375;1166,85778;0,18400
160,70801;10,71375;1167,61290;0,18446
161,00801;10,73378;1166,92046;0,18492
161,30801;10,75369;1166,42844;0,18538
161,60801;10,77366;1165,96473;0,18583
161,90801;10,79366;1165,80809;0,18629
162,20801;10,81378;1165,48846;0,18676
162,50801;10,83378;1166,53815;0,18721
162,80801;10,85375;1166,43477;0,18767
163,10801;10,87381;1165,12813;0,18813
163,40801;10,89375;1165,85195;0,18859
163,70801;10,91372;1166,53815;0,18905
164,00801;10,93375;1166,38150;0,18951
164,30801;10,95366;1165,91770;0,18996
164,60801;10,97366;1165,45716;0,19043
164,90801;10,99366;1166,07444;0,19089
165,20801;11,01378;1165,92711;0,19135
165,50801;11,03383;1165,45716;0,19181
165,80801;11,05369;1165,35062;0,19227
166,10801;11,07375;1165,03099;0,19272
166,40801;11,09375;1165,83314;0,19319
166,70801;11,11378;1166,34071;0,19365
167,00801;11,13375;1164,56719;0,19411
167,30801;11,15366;1165,65451;0,19457
167,60801;11,17369;1166,22169;0,19503
167,90801;11,19363;1165,07486;0,19550
168,20801;11,21375;1165,19388;0,19596
168,50801;11,23380;1165,22834;0,19642
168,80801;11,25372;1164,58917;0,19688
169,10801;11,27372;1165,13753;0,19733
169,40801;11,29372;1165,28161;0,19780
169,70801;11,31380;1164,58600;0,19826
170,00801;11,33369;1164,98712;0,19872
170,30801;11,35363;1165,35062;0,19918
170,60801;11,37369;1164,03140;0,19964
170,90801;11,39366;1164,30093;0,20010
171,20801;11,41375;1163,89981;0,20057
171,50801;11,43378;1164,44500;0,20103
171,80801;11,45378;1164,65492;0,20148
172,10801;11,47375;1164,53273;0,20195
172,40801;11,49372;1163,89357;0,20240
172,70801;11,51380;1163,79010;0,20287
173,00801;11,53375;1165,36934;0,20333
173,30801;11,55366;1163,51750;0,20378
173,60801;11,57366;1163,94991;0,20425
173,90801;11,59372;1163,79326;0,20471
174,20801;11,61378;1164,17864;0,20518
174,50801;11,63378;1163,86851;0,20563
174,80801;11,65375;1163,97506;0,20609
175,10801;11,67375;1164,18181;0,20655
175,40801;11,69375;1164,29152;0,20702
175,70801;11,71375;1164,11913;0,20748
176,00801;11,73378;1163,53631;0,20794
176,30801;11,75366;1163,65850;0,20840
176,60801;11,77360;1163,28252;0,20886
176,90801;11,79366;1163,71810;0,20932
177,20801;11,81372;1163,21668;0,20978
177,50801;11,83377;1162,41146;0,21025
177,80801;11,85378;1162,70594;0,21070
178,10801;11,87383;1162,70911;0,21117
178,40801;11,89378;1162,21402;0,21163
178,70801;11,91372;1163,47363;0,21210
179,00801;11,93372;1163,45482;0,21256
179,30801;11,95363;1163,08825;0,21302
179,60801;11,97372;1162,85011;0,21348
179,90801;11,99369;1162,95042;0,21395
180,20801;12,01380;1162,99735;0,21441
180,50801;12,03380;1162,20778;0,21487
180,80801;12,05369;1161,56852;0,21533
181,10801;12,07378;1162,76238;0,21580
181,40801;12,09372;1162,53989;0,21626
181,70801;12,11372;1162,83130;0,21673
182,00801;12,13369;1162,19521;0,21719
182,30801;12,15363;1162,32680;0,21765
182,60801;12,17375;1162,03856;0,21812
182,90801;12,19369;1162,30799;0,21858
183,20801;12,21378;1162,41770;0,21905
183,50801;12,23380;1161,49336;0,21951
183,80801;12,25372;1162,13569;0,21997
184,10801;12,27375;1162,22659;0,22043
184,40801;12,29375;1161,99786;0,22089
184,70801;12,31378;1160,88856;0,22136
185,00801;12,33369;1161,94766;0,22182
185,30801;12,35366;1161,72833;0,22228
185,60801;12,37372;1162,33937;0,22274
185,90801;12,39369;1162,39889;0,22321
186,20801;12,41375;1161,37741;0,22367
186,50801;12,43380;1161,84745;0,22414
186,80801;12,45380;1161,04838;0,22461
187,10801;12,47375;1161,98529;0,22507
187,40801;12,49372;1160,90113;0,22553
187,70801;12,51375;1162,10748;0,22599
188,00801;12,53369;1161,91637;0,22646
188,30801;12,55369;1160,74756;0,22692
188,60801;12,57369;1161,81299;0,22738
188,90801;12,59372;1161,78477;0,22785
189,20801;12,61378;1161,29909;0,22832
189,50801;12,63375;1161,43692;0,22878
189,80801;12,65375;1161,31790;0,22924
190,10801;12,67375;1161,85993;0,22971
190,40801;12,69372;1161,14244;0,23017
190,70801;12,71375;1161,61238;0,23063
191,00801;12,73377;1161,33662;0,23110
191,30801;12,75369;1161,13611;0,23156
191,60801;12,77366;1161,15175;0,23202
191,90801;12,79366;1160,92935;0,23249
192,20801;12,81377;1160,45615;0,23295
192,50801;12,83378;1160,36842;0,23341
192,80801;12,85372;1161,28344;0,23388
193,10801;12,87380;1161,35543;0,23434
193,40801;12,89375;1161,12046;0,23480
193,70801;12,91372;1160,12404;0,23526
194,00801;12,93375;1161,19254;0,23573
194,30801;12,95366;1160,82281;0,23619
194,60801;12,97366;1160,72567;0,23665
194,90801;12,99369;1161,73457;0,23712
195,20801;13,01377;1160,10522;0,23758
195,50801;13,03383;1160,13968;0,23805
195,80801;13,05369;1161,49643;0,23851
196,10801;13,07375;1160,52199;0,23897
196,40801;13,09375;1161,20502;0,23943
196,70801;13,11377;1161,14868;0,23990
197,00801;13,13372;1161,88191;0,24036
197,30801;13,15369;1160,58150;0,24082
197,60801;13,17372;1161,37117;0,24129
197,90801;13,19363;1160,75072;0,24175
198,20801;13,21375;1160,63161;0,24222
198,50801;13,23383;1160,55962;0,24268
198,80801;13,25372;1160,60656;0,24314
199,10801;13,27375;1161,07343;0,24361
199,40801;13,29372;1161,07659;0,24407
199,70801;13,31383;1160,33712;0,24454
200,00801;13,33372;1161,36177;0,24500
200,30801;13,35363;1160,62220;0,24546
200,60801;13,37369;1161,34919;0,24592
200,90801;13,39363;1160,42793;0,24639
201,20801;13,41377;1159,97046;0,24685
201,50801;13,43377;1160,39347;0,24731
201,80801;13,45377;1160,69429;0,24778
202,10801;13,47374;1160,52199;0,24824
202,40801;13,49372;1160,48437;0,24870
202,70801;13,51377;1160,67240;0,24917
203,00801;13,53372;1161,05461;0,24964
203,30801;13,55366;1160,51575;0,25010
203,60801;13,57369;1160,94816;0,25056
203,90801;13,59375;1161,33979;0,25103
204,20801;13,61377;1160,42169;0,25150
204,50801;13,63375;1160,52506;0,25196
204,80801;13,65375;1161,63744;0,25242
205,10801;13,67375;1160,80083;0,25288
205,40801;13,69374;1160,87291;0,25334
205,70801;13,71374;1161,14244;0,25381
206,00801;13,73377;1160,37782;0,25427
206,30801;13,75366;1161,34295;0,25473
206,60801;13,77363;1161,09541;0,25520
206,90801;13,79369;1161,10789;0,25566
207,20801;13,81377;1161,00134;0,25613
207,50801;13,83377;1159,71984;0,25659
207,80801;13,85372;1160,99510;0,25705
208,10801;13,87377;1160,91678;0,25753
208,40801;13,89377;1160,29009;0,25798
208,70801;13,91374;1161,09848;0,25845
209,00801;13,93374;1161,16749;0,25891
209,30801;13,95366;1161,67506;0,25937
209,60801;13,97369;1162,51484;0,25983
209,90801;13,99366;1160,38099;0,26029
210,20801;14,01380;1161,09541;0,26076
210,50801;14,03380;1161,21443;0,26123
210,80801;14,05369;1161,28344;0,26168
211,10801;14,07374;1161,24582;0,26215
211,40801;14,09375;1161,03897;0,26261
211,70801;14,11374;1160,99827;0,26308
212,00801;14,13369;1161,07343;0,26353
212,30801;14,15363;1161,04214;0,26400
212,60801;14,17372;1161,85369;0,26446
212,90801;14,19366;1162,06361;0,26492
213,20801;14,21377;1160,24623;0,26539
213,50801;14,23380;1160,68805;0,26585
213,80801;14,25372;1160,75389;0,26631
214,10801;14,27374;1161,22076;0,26677
214,40801;14,29374;1161,18630;0,26724
214,70801;14,31380;1160,92935;0,26770
215,00801;14,33372;1161,13611;0,26817
215,30801;14,35366;1161,49336;0,26862
215,60801;14,37369;1161,28027;0,26909
215,90801;14,39366;1161,17056;0,26955
216,20801;14,41374;1161,27087;0,27002
216,50801;14,43380;1160,96064;0,27049
216,80801;14,45380;1161,53723;0,27095
217,10801;14,47377;1160,78518;0,27141
217,40801;14,49369;1161,59674;0,27186
217,70801;14,51374;1160,95748;0,27233
218,00801;14,53369;1161,10481;0,27280
218,30801;14,55369;1160,83222;0,27326
218,60801;14,57369;1160,89489;0,27373
218,90801;14,59371;1160,83222;0,27418
219,20801;14,61377;1161,37117;0,27465
219,50801;14,63374;1161,30533;0,27512
219,80801;14,65377;1160,50942;0,27558
220,10801;14,67377;1160,56893;0,27604
220,40801;14,69374;1161,24265;0,27651
220,70801;14,71374;1161,38989;0,27697
221,00801;14,73377;1161,02649;0,27744
221,30801;14,75369;1161,55287;0,27790
221,60801;14,77366;1161,92261;0,27836
221,90801;14,79366;1161,04530;0,27882
222,20801;14,81377;1161,12046;0,27929
222,50801;14,83377;1161,33979;0,27976
222,80801;14,85374;1161,42752;0,28022
223,10801;14,87377;1161,30216;0,28068
223,40801;14,89374;1161,71585;0,28115
223,70801;14,91371;1161,42444;0,28161
224,00801;14,93377;1161,53723;0,28208
224,30801;14,95369;1161,28651;0,28254
224,60801;14,97366;1161,93201;0,28301
224,90801;14,99366;1162,03539;0,28347
225,20801;15,01377;1162,06678;0,28394
225,50801;15,03383;1161,41187;0,28440
225,80801;15,05372;1162,10431;0,28486
226,10801;15,07377;1162,41453;0,28533
226,40801;15,09374;1162,01034;0,28579
226,70801;15,11374;1162,33937;0,28626
227,00801;15,13371;1162,22659;0,28672
227,30801;15,15369;1162,06361;0,28718
227,60801;15,17371;1162,14193;0,28765
227,90801;15,19363;1162,06044;0,28811
228,20801;15,21374;1162,19521;0,28857
228,50801;15,23377;1161,75339;0,28904
228,80801;15,25374;1161,85993;0,28950
229,10801;15,27374;1162,51484;0,28996
229,40801;15,29372;1162,33937;0,29042
229,70801;15,31380;1161,49643;0,29088
230,00801;15,33369;1162,40829;0,29135
230,30801;15,35363;1162,69970;0,29181
230,60801;15,37372;1162,33937;0,29227
230,90801;15,39366;1161,88498;0,29274
231,20801;15,41377;1161,80042;0,29320
231,50801;15,43377;1162,38948;0,29366
231,80801;15,45377;1162,16075;0,29412
232,10801;15,47377;1162,54929;0,29459
232,40801;15,49371;1163,29193;0,29505
232,70801;15,51377;1162,49919;0,29551
233,00801;15,53371;1162,89714;0,29598
233,30801;15,55363;1162,66208;0,29644
233,60801;15,57369;1162,54305;0,29690
233,90801;15,59372;1162,72792;0,29737
234,20801;15,61377;1162,52741;0,29783
234,50801;15,63374;1162,97547;0,29829
234,80801;15,65374;1163,72118;0,29876
235,10801;15,67377;1163,10082;0,29922
235,40801;15,69374;1163,46423;0,29969
235,70801;15,71374;1163,09449;0,30015
236,00801;15,73377;1163,35144;0,30061
236,30801;15,75371;1163,00052;0,30107
236,60801;15,77366;1163,29817;0,30153
236,90801;15,79371;1163,65850;0,30200
237,20801;15,81374;1162,71228;0,30247
237,50801;15,83374;1162,96606;0,30293
237,80801;15,85371;1163,33580;0,30339
238,10801;15,87377;1163,06627;0,30385
238,40801;15,89380;1163,35768;0,30431
238,70801;15,91374;1163,86851;0,30478
239,00801;15,93371;1163,80267;0,30523
239,30801;15,95366;1163,36709;0,30569
239,60801;15,97368;1164,06903;0,30616
239,90801;15,99368;1163,77762;0,30662
240,20801;16,01380;1163,88416;0,30709
240,50801;16,03380;1163,57394;0,30755
240,80801;16,05368;1162,91596;0,30801
241,10801;16,07374;1164,47322;0,30847
241,40801;16,09377;1164,00011;0,30894
241,70801;16,11377;1164,52025;0,30940
242,00801;16,13371;1164,47639;0,30986
242,30801;16,15366;1163,90605;0,31033
242,60801;16,17374;1164,47322;0,31079
242,90801;16,19363;1163,97813;0,31125
243,20801;16,21374;1164,13170;0,31172
243,50801;16,23380;1163,77138;0,31218
243,80801;16,25374;1165,08109;0,31264
244,10801;16,27374;1164,22568;0,31311
244,40801;16,29374;1164,78968;0,31357
244,70801;16,31377;1164,58293;0,31403
245,00801;16,33371;1165,30675;0,31449
245,30801;16,35368;1165,95533;0,31495
245,60801;16,37368;1164,90880;0,31542
245,90801;16,39368;1164,68007;0,31588
246,20801;16,41374;1164,69255;0,31634
246,50801;16,43380;1164,73017;0,31680
246,80801;16,45377;1164,45133;0,31726
247,10801;16,47377;1165,04980;0,31772
247,40801;16,49371;1165,59183;0,31818
247,70801;16,51377;1165,21902;0,31864
248,00801;16,53368;1165,59500;0,31910
248,30801;16,55366;1165,17199;0,31956
248,60801;16,57368;1165,82690;0,32002
248,90801;16,59371;1165,39756;0,32049
249,20801;16,61377;1166,23109;0,32095
249,50801;16,63374;1165,60748;0,32140
249,80801;16,65377;1165,72035;0,32187
250,10801;16,67374;1166,58825;0,32232
250,40801;16,69371;1166,30318;0,32278
250,70801;16,71377;1166,07752;0,32325
251,00801;16,73377;1166,57261;0,32371
251,30801;16,75369;1166,85778;0,32417
251,60801;16,77366;1167,40614;0,32462
251,90801;16,79368;1166,39091;0,32509
252,20801;16,81377;1165,22210;0,32555
252,50801;16,83380;1166,14019;0,32601
252,80801;16,85374;1167,02067;0,32647
253,10801;16,87380;1166,32823;0,32693
253,40801;16,89377;1167,12414;0,32739
253,70801;16,91371;1167,43743;0,32785
254,00801;16,93374;1167,32148;0,32832
254,30801;16,95366;1166,28436;0,32877
254,60801;16,97371;1166,92046;0,32923
254,90801;16,99368;1167,72568;0,32968
255,20801;17,01377;1166,62588;0,33016
255,50801;17,03383;1167,12721;0,33062
255,80801;17,05368;1167,50328;0,33107
256,10801;17,07374;1167,57220;0,33153
256,40801;17,09374;1167,23375;0,33199
256,70801;17,11374;1168,11423;0,33245
257,00801;17,13371;1167,81350;0,33291
257,30801;17,15368;1167,77895;0,33337
257,60801;17,17371;1168,57486;0,33383
257,90801;17,19363;1168,11739;0,33429
258,20801;17,21377;1166,87026;0,33476
258,50801;17,23380;1168,16442;0,33522
258,80801;17,25374;1168,19264;0,33568
259,10801;17,27374;1168,37434;0,33613
259,40801;17,29368;1168,83805;0,33659
259,70801;17,31380;1168,43702;0,33705
260,00801;17,33371;1168,17690;0,33751
260,30801;17,35368;1168,35870;0,33797
260,60801;17,37371;1167,79469;0,33842
260,90801;17,39365;1169,28928;0,33889
261,20801;17,41377;1168,32424;0,33935
261,50801;17,43380;1168,44010;0,33981
261,80801;17,45380;1168,74725;0,34027
262,10801;17,47374;1169,22660;0,34073
262,40801;17,49371;1169,08252;0,34119
262,70801;17,51380;1170,74633;0,34164
263,00801;17,53371;1169,90032;0,34211
263,30801;17,55366;1169,85645;0,34256
263,60801;17,57368;1170,14162;0,34302
263,90801;17,59371;1170,27629;0,34348
264,20801;17,61377;1168,76289;0,34394
264,50801;17,63377;1170,33590;0,34440
264,80801;17,65371;1170,30768;0,34485
265,10801;17,67374;1170,35778;0,34532
265,40801;17,69374;1170,00369;0,34577
265,70801;17,71374;1170,70563;0,34623
266,00801;17,73377;1170,68682;0,34670
266,30801;17,75368;1169,81259;0,34715
266,60801;17,77363;1169,84388;0,34761
266,90801;17,79368;1170,91238;0,34807
267,20801;17,81377;1170,67741;0,34853
267,50801;17,83377;1170,04756;0,34898
267,80801;17,85374;1170,20113;0,34944
268,10801;17,87380;1170,79020;0,34989
268,40801;17,89377;1170,88426;0,35035
268,70801;17,91374;1171,40124;0,35080
269,00801;17,93371;1170,71504;0,35126
269,30801;17,95368;1171,68641;0,35172
269,60801;17,97371;1171,58610;0,35217
269,90801;17,99368;1171,59234;0,35263
270,20801;18,01377;1170,72128;0,35309
270,50801;18,03380;1172,43528;0,35355
270,80801;18,05368;1171,94643;0,35400
271,10801;18,07377;1171,93703;0,35446
271,40801;18,09374;1172,18457;0,35492
271,70801;18,11377;1172,48539;0,35538
272,00801;18,13371;1172,67026;0,35583
272,30801;18,15363;1171,56729;0,35628
272,60801;18,17374;1172,20338;0,35675
272,90801;18,19362;1172,76739;0,35720
273,20801;18,21374;1172,30676;0,35766
273,50801;18,23382;1171,78978;0,35811
273,80801;18,25374;1172,51044;0,35856
274,10801;18,27374;1173,18733;0,35903
274,40801;18,29374;1172,82383;0,35948
274,70801;18,31377;1173,37843;0,35994
275,00801;18,33371;1172,40390;0,36040
275,30801;18,35368;1174,22761;0,36085
275,60801;18,37371;1173,23743;0,36131
275,90801;18,39365;1172,83631;0,36177
276,20801;18,41374;1173,51944;0,36222
276,50801;18,43380;1173,21238;0,36268
276,80801;18,45379;1173,50062;0,36313
277,10801;18,47377;1173,74500;0,36359
277,40801;18,49371;1173,72312;0,36405
277,70801;18,51377;1173,87036;0,36451
278,00801;18,53368;1173,93928;0,36497
278,30801;18,55368;1174,00819;0,36542
278,60801;18,57365;1173,43795;0,36588
278,90801;18,59371;1174,30594;0,36634
279,20801;18,61380;1173,94561;0,36679
279,50801;18,63374;1175,71913;0,36725
279,80801;18,65380;1173,20921;0,36770
280,10801;18,67374;1174,81044;0,36816
280,40801;18,69368;1174,94510;0,36862
280,70801;18,71374;1175,48723;0,36908
281,00801;18,73380;1175,19582;0,36954
281,30801;18,75371;1175,16443;0,36999
281,60801;18,77365;1175,63764;0,37044
281,90801;18,79365;1174,67567;0,37091
282,20801;18,81377;1174,27455;0,37136
282,50801;18,83380;1176,24868;0,37182
282,80801;18,85374;1175,21146;0,37227
283,10801;18,87380;1175,44960;0,37273
283,40801;18,89377;1175,42772;0,37319
283,70801;18,91371;1175,83498;0,37364
284,00801;18,93377;1175,70972;0,37410
284,30801;18,95368;1175,16136;0,37455
284,60801;18,97368;1175,13314;0,37500
284,90801;18,99365;1176,10767;0,37545
285,20801;19,01377;1175,54991;0,37592
285,50801;19,03383;1175,90083;0,37637
285,80801;19,05368;1175,55931;0,37682
286,10801;19,07377;1176,59336;0,37727
286,40801;19,09374;1177,22312;0,37773
286,70801;19,11377;1176,90666;0,37819
287,00801;19,13371;1177,23569;0,37864
287,30801;19,15368;1177,01637;0,37909
287,60801;19,17371;1176,27997;0,37954
287,90801;19,19363;1176,96309;0,38000
288,20801;19,21374;1176,45543;0,38045
288,50801;19,23380;1177,13539;0,38090
288,80801;19,25377;1176,67476;0,38136
289,10801;19,27374;1177,83416;0,38181
289,40801;19,29371;1177,38917;0,38227
289,70801;19,31380;1177,74950;0,38272
290,00801;19,33371;1176,82517;0,38317
290,30801;19,35365;1177,62731;0,38361
290,60801;19,37371;1177,26391;0,38406
290,90801;19,39362;1177,63989;0,38452
291,20801;19,41374;1177,80911;0,38498
291,50801;19,43379;1177,31085;0,38543
291,80801;19,45380;1177,15420;0,38589
292,10801;19,47377;1178,45461;0,38634
292,40801;19,49371;1178,17260;0,38679
292,70801;19,51377;1178,13181;0,38724
293,00801;19,53371;1178,72404;0,38770
293,30801;19,55365;1179,12823;0,38815
293,60801;19,57368;1179,22230;0,38860
293,90801;19,59371;1178,36371;0,38906
294,20801;19,61377;1178,00022;0,38952
294,50801;19,63377;1179,53559;0,38997
294,80801;19,65374;1179,33815;0,39042
295,10801;19,67377;1179,83641;0,39087
295,40801;19,69374;1179,86463;0,39132
295,70801;19,71374;1180,26566;0,39178
296,00801;19,73377;1180,12158;0,39223
296,30801;19,75368;1179,60768;0,39269
296,60801;19,77362;1180,33150;0,39313
296,90801;19,79371;1180,09653;0,39359
297,20801;19,81377;1179,72987;0,39404
297,50801;19,83380;1179,74868;0,39450
297,80801;19,85374;1180,76392;0,39495
298,10801;19,87377;1180,56023;0,39540
298,40801;19,89377;1180,30952;0,39586
298,70801;19,91374;1180,66994;0,39631
299,00801;19,93374;1180,23120;0,39676
299,30801;19,95371;1181,06473;0,39721
299,60801;19,97368;1180,68242;0,39766
299,90801;19,99365;1180,62915;0,39811
300,20801;20,01377;1180,71064;0,39857
300,50801;20,03379;1181,53477;0,39902
300,80801;20,05371;1181,03651;0,39947
301,10801;20,07377;1182,45911;0,39992
301,40801;20,09377;1181,55982;0,40037
301,70801;20,11377;1181,72271;0,40083
302,00801;20,13371;1182,33692;0,40127
302,30801;20,15365;1182,27107;0,40173
302,60801;20,17377;1182,49673;0,40218
302,90801;20,19362;1182,33692;0,40263
303,20801;20,21374;1181,53477;0,40308
303,50801;20,23380;1182,13948;0,40353
303,80801;20,25371;1182,60011;0,40398
304,10801;20,27377;1182,97301;0,40444
304,40801;20,29374;1183,30512;0,40488
304,70801;20,31377;1182,15829;0,40533
305,00801;20,33371;1182,91341;0,40578
305,30801;20,35365;1182,80686;0,40623
305,60801;20,37371;1183,69050;0,40668
305,90801;20,39368;1184,09786;0,40713
306,20801;20,41371;1183,56515;0,40758
306,50801;20,43379;1183,73754;0,40803
306,80801;20,45379;1184,12292;0,40848
307,10801;20,47374;1183,88794;0,40892
307,40801;20,49371;1183,22680;0,40938
307,70801;20,51377;1183,72496;0,40982
308,00801;20,53368;1184,69950;0,41028
308,30801;20,55368;1184,04776;0,41073
308,60801;20,57368;1184,60236;0,41118
308,90801;20,59371;1183,67802;0,41163
309,20801;20,61377;1183,47434;0,41208
309,50801;20,63374;1185,25410;0,41254
309,80801;20,65377;1184,86555;0,41298
310,10801;20,67376;1184,88753;0,41343
310,40801;20,69374;1185,40768;0,41388
310,70801;20,71377;1184,76525;0,41434
311,00801;20,73379;1184,64939;0,41478
311,30801;20,75368;1185,14439;0,41523
311,60801;20,77365;1185,41075;0,41567
311,90801;20,79368;1185,09112;0,41613
312,20801;20,81376;1185,20400;0,41658
312,50801;20,83379;1185,30737;0,41703
312,80801;20,85374;1186,83651;0,41747
313,10801;20,87379;1186,09387;0,41792
313,40801;20,89374;1186,29755;0,41837
313,70801;20,91371;1186,48550;0,41882
314,00801;20,93374;1187,09346;0,41927
314,30801;20,95368;1187,13416;0,41971
314,60801;20,97371;1185,84950;0,42016
314,90801;20,99368;1186,44796;0,42061
315,20801;21,01377;1186,77691;0,42106
315,50801;21,03382;1187,09346;0,42151
315,80802;21,05371;1187,75144;0,42196
316,10802;21,07374;1187,40359;0,42240
316,40802;21,09374;1187,68252;0,42286
316,70802;21,11376;1188,01780;0,42330
317,00802;21,13371;1188,42199;0,42375
317,30802;21,15362;1187,86739;0,42419
317,60802;21,17371;1188,20267;0,42464
317,90802;21,19365;1188,60370;0,42509
318,20802;21,21376;1187,42874;0,42554
318,50802;21,23382;1188,63825;0,42600
318,73402;21,24881;905,71810;0,43579
318,74002;21,24921;699,74549;0,44377