File: 02_Appendices/Appendix_C_Experimental_Data_and_Analysis Reports/C_1_Materials_Tests/C_1_1_Tensile_tests/C_1_1_3_Smooth Comum/Specimen_RawData_3.csv
Text Inputs : Specimen label;"1"
Dimension : Length;50,00000;mm
Dimension : Final length;100,00000;mm
Test : Rate 1;2,00000;mm/min
General : Unique Identifier;"{288E8DE0-B442-4EAD-A251-CCDBB823139B}"

Time;Extension;Load;Strain 1
(sec);(mm);(N);(mm/mm)
0,00000;0,00000;-1,90374;-0,00003
0,10000;0,00191;-2,32989;-0,00003
0,20000;0,00496;-0,93865;-0,00003
0,30000;0,00846;-1,88181;-0,00003
0,40000;0,01211;0,64060;-0,00002
0,50000;0,01573;3,06588;0,00000
0,60000;0,01926;6,67871;0,00002
0,70000;0,02282;11,01224;0,00005
0,80000;0,02635;14,94156;0,00008
0,90000;0,02980;18,79880;0,00011
1,00000;0,03325;21,77556;0,00013
1,10000;0,03664;25,48241;0,00016
1,20000;0,03997;28,62836;0,00018
1,30000;0,04328;31,23850;0,00021
1,40000;0,04667;34,91401;0,00023
1,50000;0,05006;37,98477;0,00026
1,60000;0,05339;40,43824;0,00028
1,70000;0,05672;42,60030;0,00030
1,80000;0,06003;45,55826;0,00032
1,90000;0,06330;47,35371;0,00034
2,00000;0,06658;49,71318;0,00036
2,10000;0,06994;51,27989;0,00037
2,20000;0,07333;51,22036;0,00039
2,30000;0,07670;51,81571;0,00039
2,40000;0,08003;52,16979;0,00040
2,50000;0,08336;52,31393;0,00041
2,60000;0,08664;52,88108;0,00041
2,70000;0,09000;53,49836;0,00042
2,80000;0,09339;53,10668;0,00043
2,90000;0,09672;53,71770;0,00043
3,00000;0,10003;53,98091;0,00044
3,10000;0,10336;54,66399;0,00044
3,20000;0,10664;54,00911;0,00045
3,30000;0,10994;55,24681;0,00045
3,40000;0,11330;56,02076;0,00046
3,50000;0,11667;56,35291;0,00046
3,60000;0,11997;56,54405;0,00047
3,70000;0,12330;55,27501;0,00047
3,80000;0,12664;56,24325;0,00047
3,90000;0,12989;55,66042;0,00048
4,00000;0,13325;56,54405;0,00048
4,10000;0,13667;56,55658;0,00048
4,20000;0,14003;56,62239;0,00049
4,30000;0,14342;56,43124;0,00049
4,40000;0,14675;56,98586;0,00049
4,50000;0,15006;56,95140;0,00050
4,60000;0,15333;57,30861;0,00050
4,70000;0,15667;57,43394;0,00051
4,80000;0,16000;57,70342;0,00051
4,90000;0,16333;58,04183;0,00051
5,00000;0,16667;58,83458;0,00052
5,10000;0,17000;58,71551;0,00052
5,20000;0,17330;58,30503;0,00052
5,30000;0,17661;59,30146;0,00052
5,40000;0,18000;58,78445;0,00053
5,50000;0,18336;59,09465;0,00053
5,60000;0,18669;59,20120;0,00053
5,70000;0,19003;59,46753;0,00053
5,80000;0,19336;58,52124;0,00053
5,90000;0,19664;59,18866;0,00054
6,00000;0,19997;60,09422;0,00054
6,10000;0,20336;60,06289;0,00054
6,20000;0,20667;60,29162;0,00055
6,30000;0,20997;60,66137;0,00055
6,40000;0,21330;60,56110;0,00055
6,50000;0,21661;60,47963;0,00055
6,60000;0,21991;61,18779;0,00056
6,70000;0,22328;60,22583;0,00056
6,80000;0,22667;60,72090;0,00056
6,90000;0,23003;60,96531;0,00056
7,00000;0,23339;61,18151;0,00056
7,10000;0,23672;61,44160;0,00056
7,20000;0,24003;62,39415;0,00057
7,30000;0,24333;61,29119;0,00057
7,40000;0,24669;61,49800;0,00057
7,50000;0,25006;61,77374;0,00057
7,60000;0,25339;61,80820;0,00057
7,70000;0,25669;62,13408;0,00057
7,80000;0,26000;62,37222;0,00057
7,90000;0,26325;62,70123;0,00058
8,00000;0,26658;62,25628;0,00058
8,10000;0,26997;63,41252;0,00058
8,20000;0,27333;62,56650;0,00058
8,30000;0,27669;62,27195;0,00058
8,40000;0,28006;63,55665;0,00058
8,50000;0,28339;62,06514;0,00058
8,60000;0,28664;62,80463;0,00058
8,70000;0,28997;63,06784;0,00058
8,80000;0,29333;63,48145;0,00059
8,90000;0,29669;63,25898;0,00059
9,00000;0,30003;63,87626;0,00059
9,10000;0,30336;63,83553;0,00059
9,20000;0,30664;63,84493;0,00059
9,30000;0,30994;63,88254;0,00059
9,40000;0,31330;64,16454;0,00059
9,50000;0,31667;64,00787;0,00059
9,60000;0,32000;64,51862;0,00059
9,70000;0,32333;63,90447;0,00059
9,80000;0,32667;64,36821;0,00059
9,90000;0,32994;64,60949;0,00060
10,00000;0,33328;64,54368;0,00060
10,10000;0,33667;65,60278;0,00060
10,20000;0,34003;65,38971;0,00060
10,30000;0,34342;65,46491;0,00061
10,40000;0,34675;66,19500;0,00061
10,50000;0,35006;66,94389;0,00061
10,60000;0,35330;66,79035;0,00061
10,70000;0,35664;67,56744;0,00061
10,80000;0,36000;67,73351;0,00062
10,90000;0,36333;66,93762;0,00062
11,00000;0,36667;67,76798;0,00062
11,10000;0,37000;69,69817;0,00062
11,20000;0,37330;70,15251;0,00063
11,30000;0,37664;70,34052;0,00063
11,40000;0,38003;71,16775;0,00064
11,50000;0,38339;71,49049;0,00064
11,60000;0,38672;72,79399;0,00064
11,70000;0,39003;72,55585;0,00065
11,80000;0,39336;73,92516;0,00065
11,90000;0,39664;74,71791;0,00066
12,00000;0,39994;76,32537;0,00066
12,10000;0,40330;76,92071;0,00066
12,20000;0,40667;76,90191;0,00067
12,30000;0,41000;78,32763;0,00067
12,40000;0,41333;79,45253;0,00068
12,50000;0,41667;80,74036;0,00069
12,60000;0,41991;82,19427;0,00070
12,70000;0,42330;85,23996;0,00071
12,80000;0,42664;86,56540;0,00073
12,90000;0,43003;88,91233;0,00074
13,00000;0,43336;90,15317;0,00075
13,10000;0,43669;93,30226;0,00076
13,20000;0,44000;94,24856;0,00077
13,30000;0,44330;95,02878;0,00078
13,40000;0,44667;96,60176;0,00079
13,50000;0,45003;98,87976;0,00081
13,60000;0,45336;100,55614;0,00082
13,70000;0,45669;102,49260;0,00083
13,80000;0,46003;104,87087;0,00085
13,90000;0,46328;105,94251;0,00086
14,00000;0,46661;108,17037;0,00088
14,10000;0,47000;111,10952;0,00089
14,20000;0,47333;113,01151;0,00091
14,30000;0,47667;114,12702;0,00092
14,40000;0,48003;117,57065;0,00094
14,50000;0,48336;118,41040;0,00095
14,60000;0,48664;121,42790;0,00097
14,70000;0,49000;122,96641;0,00099
14,80000;0,49336;125,03134;0,00100
14,90000;0,49669;127,40020;0,00102
15,00000;0,50003;130,07928;0,00104
15,10000;0,50333;132,03140;0,00105
15,20000;0,50664;133,81433;0,00107
15,30000;0,50994;136,43700;0,00109
15,40000;0,51330;137,69664;0,00111
15,50000;0,51669;140,48539;0,00113
15,60000;0,52006;143,21146;0,00115
15,70000;0,52339;145,14165;0,00116
15,80000;0,52669;147,17525;0,00118
15,90000;0,52997;149,35925;0,00120
16,00000;0,53330;152,02892;0,00122
16,10000;0,53669;154,48866;0,00124
16,20000;0,54003;156,83561;0,00125
16,30000;0,54336;158,04823;0,00128
16,40000;0,54669;159,93143;0,00129
16,50000;0,55003;162,77031;0,00131
16,60000;0,55328;165,09218;0,00133
16,70000;0,55664;166,91583;0,00134
16,80000;0,56000;169,20010;0,00136
16,90000;0,56333;170,15893;0,00138
17,00000;0,56667;172,48706;0,00140
17,10000;0,57000;175,61736;0,00142
17,20000;0,57330;176,30045;0,00143
17,30000;0,57661;179,46520;0,00145
17,40000;0,58000;181,49252;0,00147
17,50000;0,58339;183,28798;0,00149
17,60000;0,58672;185,97959;0,00150
17,70000;0,59003;187,78131;0,00152
17,80000;0,59336;189,15689;0,00154
17,90000;0,59661;192,01144;0,00156
18,00000;0,59994;194,50565;0,00158
18,10000;0,60333;197,00925;0,00160
18,20000;0,60669;198,53208;0,00162
18,30000;0,61003;200,38395;0,00164
18,40000;0,61336;202,06033;0,00165
18,50000;0,61667;205,12168;0,00168
18,60000;0,61994;207,72242;0,00169
18,70000;0,62330;209,73722;0,00171
18,80000;0,62667;212,51030;0,00174
18,90000;0,63000;213,93602;0,00176
19,00000;0,63336;216,70284;0,00178
19,10000;0,63667;219,81746;0,00180
19,20000;0,63997;220,94236;0,00182
19,30000;0,64328;224,32958;0,00184
19,40000;0,64667;225,97150;0,00186
19,50000;0,65003;228,84172;0,00188
19,60000;0,65339;230,85023;0,00190
19,70000;0,65672;232,86818;0,00193
19,80000;0,66006;235,97965;0,00195
19,90000;0,66330;237,24870;0,00197
20,00000;0,66664;239,91524;0,00199
20,10000;0,67000;242,67579;0,00201
20,20000;0,67336;243,87275;0,00203
20,30000;0,67669;246,80565;0,00205
20,40000;0,68003;249,70719;0,00207
20,50000;0,68336;251,73451;0,00209
20,60000;0,68658;253,85898;0,00212
20,70000;0,68994;256,54747;0,00214
20,80000;0,69330;259,11687;0,00216
20,90000;0,69667;260,62718;0,00218
21,00000;0,70003;263,61961;0,00220
21,10000;0,70336;265,07664;0,00222
21,20000;0,70667;267,63980;0,00225
21,30000;0,70997;270,10893;0,00227
21,40000;0,71333;272,39632;0,00229
21,50000;0,71669;274,18865;0,00231
21,60000;0,72003;277,02127;0,00233
21,70000;0,72336;278,61304;0,00235
21,80000;0,72667;280,35836;0,00238
21,90000;0,72994;283,04057;0,00240
22,00000;0,73328;285,64131;0,00242
22,10000;0,73664;287,87546;0,00244
22,20000;0,74003;290,69241;0,00246
22,30000;0,74336;291,94891;0,00248
22,40000;0,74672;295,36434;0,00251
22,50000;0,75006;297,70813;0,00253
22,60000;0,75333;299,55059;0,00255
22,70000;0,75667;301,08285;0,00257
22,80000;0,76003;304,31340;0,00259
22,90000;0,76333;304,83669;0,00261
23,00000;0,76669;308,48400;0,00264
23,10000;0,77003;311,08786;0,00266
23,20000;0,77333;312,44464;0,00268
23,30000;0,77664;315,54361;0,00270
23,40000;0,78003;317,46440;0,00272
23,50000;0,78336;318,77104;0,00274
23,60000;0,78669;322,25228;0,00276
23,70000;0,79003;324,05711;0,00279
23,80000;0,79336;326,35706;0,00281
23,90000;0,79664;328,17444;0,00283
24,00000;0,79997;330,47437;0,00285
24,10000;0,80336;333,25371;0,00287
24,20000;0,80675;335,03037;0,00289
24,30000;0,81006;337,30839;0,00292
24,40000;0,81339;339,14144;0,00294
24,50000;0,81669;341,31289;0,00296
24,60000;0,81994;344,19564;0,00298
24,70000;0,82330;345,26414;0,00300
24,80000;0,82664;348,45085;0,00302
24,90000;0,82994;350,16169;0,00304
25,00000;0,83333;352,49610;0,00307
25,10000;0,83667;355,53551;0,00309
25,20000;0,83994;357,65998;0,00311
25,30000;0,84328;359,07002;0,00313
25,40000;0,84667;361,31982;0,00315
25,50000;0,85006;364,78539;0,00317
25,60000;0,85339;365,62202;0,00320
25,70000;0,85672;368,10054;0,00322
25,80000;0,86003;370,94571;0,00324
25,90000;0,86325;371,81680;0,00326
26,00000;0,86658;374,43948;0,00328
26,10000;0,86997;376,96816;0,00330
26,20000;0,87333;378,58812;0,00333
26,30000;0,87669;380,49326;0,00335
26,40000;0,88003;382,83705;0,00337
26,50000;0,88333;385,04298;0,00339
26,60000;0,88661;387,29906;0,00341
26,70000;0,88997;388,87830;0,00343
26,80000;0,89336;391,19390;0,00346
26,90000;0,89672;392,93608;0,00348
27,00000;0,90006;395,46788;0,00350
27,10000;0,90339;397,31972;0,00352
27,20000;0,90667;399,38781;0,00354
27,30000;0,90997;401,77233;0,00356
27,40000;0,91333;403,42677;0,00358
27,50000;0,91669;405,90530;0,00360
27,60000;0,92003;408,33373;0,00363
27,70000;0,92333;409,44298;0,00365
27,80000;0,92667;413,01507;0,00367
27,90000;0,92989;414,74160;0,00369
28,00000;0,93322;416,55898;0,00371
28,10000;0,93661;418,26041;0,00373
28,20000;0,94000;420,79221;0,00376
28,30000;0,94336;422,15213;0,00377
28,40000;0,94675;424,90643;0,00380
28,50000;0,95008;425,95924;0,00382
28,60000;0,95333;428,72294;0,00384
28,70000;0,95667;430,37739;0,00386
28,80000;0,96003;432,92483;0,00388
28,90000;0,96336;434,99917;0,00390
29,00000;0,96669;436,66931;0,00393
29,10000;0,97003;438,69661;0,00395
29,20000;0,97330;441,04354;0,00397
29,30000;0,97661;443,37171;0,00399
29,40000;0,97997;444,87258;0,00401
29,50000;0,98333;447,04718;0,00403
29,60000;0,98667;449,19048;0,00405
29,70000;0,99003;450,55663;0,00407
29,80000;0,99336;453,69631;0,00409
29,90000;0,99667;455,52938;0,00411
30,00000;1,00000;456,06205;0,00413
30,10000;1,00336;459,22371;0,00416
30,20000;1,00669;461,00346;0,00418
30,30000;1,01006;463,20315;0,00420
30,40000;1,01336;464,74477;0,00422
30,50000;1,01667;467,19201;0,00424
30,60000;1,01991;468,61456;0,00426
30,70000;1,02328;470,67637;0,00428
30,80000;1,02667;473,44943;0,00430
30,90000;1,03000;474,42392;0,00432
31,00000;1,03333;476,24446;0,00434
31,10000;1,03667;478,40653;0,00436
31,20000;1,03997;480,05157;0,00438
31,30000;1,04328;482,98133;0,00440
31,40000;1,04667;484,06236;0,00443
31,50000;1,05006;486,14293;0,00445
31,60000;1,05339;488,33322;0,00447
31,70000;1,05672;490,36681;0,00449
31,80000;1,06003;492,05259;0,00451
31,90000;1,06330;493,76972;0,00453
32,00000;1,06661;496,84048;0,00455
32,10000;1,06997;497,93716;0,00457
32,20000;1,07333;499,73889;0,00459
32,30000;1,07667;502,34278;0,00462
32,40000;1,08006;502,99452;0,00464
32,50000;1,08336;505,75817;0,00466
32,60000;1,08667;508,27120;0,00468
32,70000;1,09003;509,29268;0,00470
32,80000;1,09342;511,76185;0,00472
32,90000;1,09675;513,84554;0,00474
33,00000;1,10008;515,97003;0,00476
33,10000;1,10339;517,33307;0,00478
33,20000;1,10664;519,29145;0,00480
33,30000;1,10994;521,53184;0,00482
33,40000;1,11328;523,66573;0,00484
33,50000;1,11664;525,71185;0,00487
33,60000;1,11997;527,39764;0,00488
33,70000;1,12330;528,51001;0,00491
33,80000;1,12664;531,35515;0,00493
33,90000;1,12988;531,85648;0,00495
34,00000;1,13325;534,39769;0,00497
34,10000;1,13664;536,55352;0,00499
34,20000;1,14003;538,67796;0,00501
34,30000;1,14339;539,98772;0,00503
34,40000;1,14675;542,45689;0,00505
34,50000;1,15006;544,13010;0,00507
34,60000;1,15333;546,34232;0,00509
34,70000;1,15667;547,47351;0,00511
34,80000;1,16000;549,87371;0,00513
34,90000;1,16333;551,14585;0,00515
35,00000;1,16667;553,60561;0,00517
35,10000;1,17000;555,46998;0,00520
35,20000;1,17330;556,84242;0,00522
35,30000;1,17658;559,19564;0,00523
35,40000;1,18000;560,57749;0,00526
35,50000;1,18339;563,38189;0,00527
35,60000;1,18672;564,82325;0,00530
35,70000;1,19006;565,75076;0,00532
35,80000;1,19336;568,48312;0,00534
35,90000;1,19667;570,21901;0,00536
36,00000;1,20000;572,09595;0,00538
36,10000;1,20339;573,68148;0,00540
36,20000;1,20669;576,43261;0,00542
36,30000;1,21000;576,90577;0,00544
36,40000;1,21333;578,91114;0,00546
36,50000;1,21664;581,09830;0,00548
36,60000;1,21991;582,58041;0,00550
36,70000;1,22327;584,88348;0,00552
36,80000;1,22664;585,88930;0,00554
36,90000;1,23000;587,44662;0,00556
37,00000;1,23336;590,06927;0,00558
37,10000;1,23669;591,58900;0,00560
37,20000;1,24000;593,72284;0,00562
37,30000;1,24330;595,68752;0,00564
37,40000;1,24667;596,71840;0,00566
37,50000;1,25003;598,66114;0,00568
37,60000;1,25336;600,43465;0,00570
37,70000;1,25669;602,71579;0,00572
37,80000;1,26000;604,42351;0,00574
37,90000;1,26325;606,12182;0,00576
38,00000;1,26655;607,16211;0,00578
38,10000;1,26994;608,91057;0,00580
38,20000;1,27333;611,80587;0,00582
38,30000;1,27669;613,58563;0,00584
38,40000;1,28006;615,06773;0,00586
38,50000;1,28339;616,13000;0,00588
38,60000;1,28667;618,57719;0,00590
38,70000;1,29000;620,03108;0,00592
38,80000;1,29339;621,87039;0,00594
38,90000;1,29672;623,01722;0,00596
39,00000;1,30008;624,30194;0,00598
39,10000;1,30336;626,69902;0,00600
39,20000;1,30664;628,85480;0,00602
39,30000;1,30994;630,51865;0,00604
39,40000;1,31330;632,54600;0,00606
39,50000;1,31667;633,55183;0,00608
39,60000;1,32000;634,82085;0,00609
39,70000;1,32333;636,74790;0,00612
39,80000;1,32667;638,02321;0,00613
39,90000;1,32991;639,43639;0,00615
40,00000;1,33325;641,80838;0,00617
40,10000;1,33664;643,41896;0,00619
40,20000;1,34003;644,13655;0,00621
40,30000;1,34339;646,84381;0,00623
40,40000;1,34675;647,51436;0,00625
40,50000;1,35006;648,62045;0,00626
40,60000;1,35330;651,07392;0,00628
40,70000;1,35664;651,53767;0,00630
40,80000;1,35997;652,57484;0,00631
40,90000;1,36330;654,58338;0,00633
41,00000;1,36667;656,34437;0,00635
41,10000;1,37000;657,80142;0,00637
41,20000;1,37333;659,27100;0,00639
41,30000;1,37667;660,35199;0,00640
41,40000;1,38006;662,10357;0,00642
41,50000;1,38345;663,69539;0,00644
41,60000;1,38675;665,03021;0,00646
41,70000;1,39006;665,82612;0,00647
41,80000;1,39339;667,30194;0,00649
41,90000;1,39664;668,45817;0,00651
42,00000;1,39994;670,27872;0,00653
42,10000;1,40330;672,27157;0,00654
42,20000;1,40664;672,99227;0,00656
42,30000;1,41000;674,82218;0,00658
42,40000;1,41330;675,48021;0,00659
42,50000;1,41664;677,60465;0,00661
42,60000;1,41991;678,80163;0,00663
42,70000;1,42327;680,14897;0,00664
42,80000;1,42664;681,14856;0,00666
42,90000;1,43000;682,55235;0,00668
43,00000;1,43333;684,36661;0,00670
43,10000;1,43669;686,13696;0,00671
43,20000;1,44000;686,87960;0,00673
43,30000;1,44327;688,96646;0,00675
43,40000;1,44667;690,39841;0,00677
43,50000;1,45003;692,14064;0,00678
43,60000;1,45339;693,26553;0,00680
43,70000;1,45672;694,41549;0,00682
43,80000;1,46003;695,52786;0,00684
43,90000;1,46327;697,98133;0,00685
44,00000;1,46658;698,91196;0,00687
44,10000;1,46997;699,84570;0,00689
44,20000;1,47333;701,66308;0,00691
44,30000;1,47667;703,61211;0,00692
44,40000;1,48006;704,60537;0,00694
44,50000;1,48339;706,86457;0,00696
44,60000;1,48664;708,15557;0,00697
44,70000;1,49000;709,05173;0,00699
44,80000;1,49336;710,39284;0,00701
44,90000;1,49669;712,39821;0,00703
45,00000;1,50003;712,89330;0,00705
45,10000;1,50333;714,62919;0,00706
45,20000;1,50664;715,58491;0,00708
45,30000;1,50994;717,69995;0,00710
45,40000;1,51330;718,67448;0,00712
45,50000;1,51672;720,96498;0,00713
45,60000;1,52006;721,81104;0,00715
45,70000;1,52339;723,42786;0,00717
45,80000;1,52669;723,97934;0,00718
45,90000;1,52994;725,60245;0,00720
46,00000;1,53327;727,69560;0,00722
46,10000;1,53666;728,65756;0,00723
46,20000;1,54003;729,72607;0,00725
46,30000;1,54336;731,10163;0,00727
46,40000;1,54669;733,12582;0,00729
46,50000;1,55000;735,18134;0,00730
46,60000;1,55325;735,98665;0,00732
46,70000;1,55661;737,41861;0,00734
46,80000;1,55997;738,81927;0,00736
46,90000;1,56336;739,56815;0,00738
47,00000;1,56669;741,55475;0,00739
47,10000;1,57003;743,36901;0,00741
47,20000;1,57336;744,20874;0,00743
47,30000;1,57666;745,70966;0,00744
47,40000;1,58006;747,65240;0,00746
47,50000;1,58342;748,86815;0,00748
47,60000;1,58672;750,42546;0,00750
47,70000;1,59006;751,21820;0,00751
47,80000;1,59336;751,90444;0,00753
47,90000;1,59661;753,27377;0,00755
48,00000;1,59994;755,34182;0,00756
48,10000;1,60330;757,55715;0,00758
48,20000;1,60669;758,31232;0,00760
48,30000;1,61003;759,75680;0,00762
48,40000;1,61336;761,00077;0,00763
48,50000;1,61669;762,83696;0,00765
48,60000;1,61994;763,46677;0,00767
48,70000;1,62330;765,52546;0,00769
48,80000;1,62666;766,61273;0,00770
48,90000;1,63000;767,98517;0,00772
49,00000;1,63333;768,73405;0,00774
49,10000;1,63666;771,38497;0,00776
49,20000;1,63997;772,02418;0,00777
49,30000;1,64327;774,37423;0,00779
49,40000;1,64666;774,72832;0,00781
49,50000;1,65003;777,18492;0,00782
49,60000;1,65336;778,01216;0,00784
49,70000;1,65669;779,69478;0,00786
49,80000;1,66003;780,63169;0,00788
49,90000;1,66330;782,12321;0,00790
50,00000;1,66664;783,82464;0,00792
50,10000;1,67003;785,44151;0,00794
50,20000;1,67336;787,94826;0,00795
50,30000;1,67672;789,20471;0,00797
50,40000;1,68006;790,88425;0,00799
50,50000;1,68336;792,05930;0,00801
50,60000;1,68658;793,02751;0,00803
50,70000;1,68994;795,15195;0,00805
50,80000;1,69333;795,63139;0,00806
50,90000;1,69669;797,74642;0,00808
51,00000;1,70003;799,02178;0,00810
51,10000;1,70336;800,96135;0,00812
51,20000;1,70664;802,13947;0,00814
51,30000;1,70994;803,17976;0,00815
51,40000;1,71330;804,49898;0,00817
51,50000;1,71666;806,48558;0,00819
51,60000;1,72003;808,00215;0,00821
51,70000;1,72336;808,96094;0,00823
51,80000;1,72669;811,10112;0,00824
51,90000;1,72994;811,64008;0,00826
52,00000;1,73327;813,15031;0,00828
52,10000;1,73664;815,26544;0,00830
52,20000;1,74000;816,29315;0,00832
52,30000;1,74336;818,42393;0,00834
52,40000;1,74672;819,79325;0,00835
52,50000;1,75003;821,62628;0,00837
52,60000;1,75330;822,30000;0,00839
52,70000;1,75666;824,03896;0,00841
52,80000;1,76003;825,55246;0,00843
52,90000;1,76336;827,02516;0,00845
53,00000;1,76669;828,08109;0,00846
53,10000;1,77000;830,00194;0,00848
53,20000;1,77333;831,33047;0,00850
53,30000;1,77666;832,38333;0,00852
53,40000;1,78000;834,71145;0,00854
53,50000;1,78333;836,14653;0,00856
53,60000;1,78669;837,57229;0,00857
53,70000;1,79003;838,93528;0,00860
53,80000;1,79336;839,62781;0,00861
53,90000;1,79664;841,52976;0,00863
54,00000;1,79997;843,08088;0,00865
54,10000;1,80336;844,16503;0,00866
54,20000;1,80672;846,77199;0,00868
54,30000;1,81005;847,37362;0,00870
54,40000;1,81339;848,30429;0,00872
54,50000;1,81669;851,14939;0,00874
54,60000;1,81997;851,56932;0,00876
54,70000;1,82327;852,69418;0,00877
54,80000;1,82664;853,84417;0,00879
54,90000;1,82994;855,43282;0,00881
55,00000;1,83330;857,25021;0,00883
55,10000;1,83664;858,69785;0,00885
55,20000;1,83994;859,87598;0,00887
55,30000;1,84327;861,47087;0,00888
55,40000;1,84666;863,18487;0,00890
55,50000;1,85005;864,50409;0,00892
55,60000;1,85339;866,23374;0,00894
55,70000;1,85672;867,20195;0,00896
55,80000;1,86005;868,68405;0,00897
55,90000;1,86333;869,26688;0,00899
56,00000;1,86664;871,64510;0,00901
56,10000;1,87000;873,05522;0,00903
56,20000;1,87336;874,31483;0,00905
56,30000;1,87666;875,26422;0,00907
56,40000;1,88003;877,26340;0,00908
56,50000;1,88336;877,91514;0,00910
56,60000;1,88661;879,82649;0,00912
56,70000;1,88997;880,91381;0,00914
56,80000;1,89333;882,47741;0,00916
56,90000;1,89669;884,14121;0,00917
57,00000;1,90003;885,03109;0,00919
57,10000;1,90336;887,17444;0,00921
57,20000;1,90664;888,84449;0,00923
57,30000;1,90994;889,71565;0,00925
57,40000;1,91330;890,96902;0,00926
57,50000;1,91666;892,68610;0,00928
57,60000;1,92003;893,84550;0,00930
57,70000;1,92333;895,07066;0,00932
57,80000;1,92666;896,08589;0,00934
57,90000;1,92988;897,62127;0,00936
58,00000;1,93325;899,16289;0,00937
58,10000;1,93664;900,63559;0,00939
58,20000;1,94003;901,45031;0,00941
58,30000;1,94342;903,67813;0,00943
58,40000;1,94678;904,44582;0,00945
58,50000;1,95008;905,83712;0,00946
58,60000;1,95333;907,55103;0,00948
58,70000;1,95666;908,89214;0,00950
58,80000;1,96005;909,41545;0,00952
58,90000;1,96336;911,24540;0,00954
59,00000;1,96669;913,22567;0,00956
59,10000;1,97000;914,29735;0,00957
59,20000;1,97330;915,01800;0,00959
59,30000;1,97661;916,91688;0,00961
59,40000;1,98000;918,26422;0,00963
59,50000;1,98336;919,22618;0,00965
59,60000;1,98669;921,56688;0,00966
59,70000;1,99003;922,51003;0,00968
59,80000;1,99336;923,46575;0,00970
59,90000;1,99664;925,20788;0,00972
60,00000;1,99997;926,63988;0,00974
60,10000;2,00336;928,44786;0,00975
60,20000;2,00669;929,24060;0,00977
60,30000;2,01005;930,34049;0,00979
60,40000;2,01336;931,52802;0,00981
60,50000;2,01666;932,64664;0,00983
60,60000;2,01991;934,27915;0,00984
60,70000;2,02327;935,75502;0,00986
60,80000;2,02664;936,47260;0,00988
60,90000;2,02997;937,52230;0,00990
61,00000;2,03330;939,74387;0,00991
61,10000;2,03664;941,23855;0,00993
61,20000;2,03997;942,03129;0,00995
61,30000;2,04327;943,61370;0,00996
61,40000;2,04666;944,41893;0,00998
61,50000;2,05005;945,19295;0,01000
61,60000;2,05342;946,99459;0,01002
61,70000;2,05672;948,40154;0,01004
61,80000;2,06005;949,63610;0,01005
61,90000;2,06330;950,20011;0,01007
62,00000;2,06658;951,95798;0,01009
62,10000;2,06994;953,18314;0,01011
62,20000;2,07333;955,42353;0,01012
62,30000;2,07669;956,24765;0,01014
62,40000;2,08005;956,31033;0,01016
62,50000;2,08336;958,38467;0,01018
62,60000;2,08664;960,13937;0,01019
62,70000;2,09000;960,84438;0,01021
62,80000;2,09339;961,99438;0,01023
62,90000;2,09672;964,15645;0,01025
63,00000;2,10008;964,85205;0,01026
63,10000;2,10339;966,12424;0,01028
63,20000;2,10666;968,18916;0,01030
63,30000;2,10994;968,37087;0,01031
63,40000;2,11330;969,77465;0,01033
63,50000;2,11666;970,90583;0,01035
63,60000;2,11997;972,21872;0,01037
63,70000;2,12333;973,17444;0,01038
63,80000;2,12664;974,65338;0,01040
63,90000;2,12991;976,30154;0,01042
64,00000;2,13325;977,61136;0,01043
64,10000;2,13664;978,69551;0,01045
64,20000;2,14003;980,60062;0,01047
64,30000;2,14339;981,18028;0,01049
64,40000;2,14672;982,89428;0,01051
64,50000;2,15005;983,50532;0,01052
64,60000;2,15333;984,66780;0,01054
64,70000;2,15666;986,10921;0,01056
64,80000;2,16003;987,59132;0,01058
64,90000;2,16333;988,69735;0,01059
65,00000;2,16666;989,86300;0,01061
65,10000;2,17000;991,59582;0,01063
65,20000;2,17330;992,71759;0,01065
65,30000;2,17661;993,34428;0,01066
65,40000;2,18000;995,07393;0,01068
65,50000;2,18336;995,91054;0,01070
65,60000;2,18669;997,84704;0,01072
65,70000;2,19003;998,89673;0,01074
65,80000;2,19336;1000,58876;0,01075
65,90000;2,19664;1002,07394;0,01077
66,00000;2,19997;1003,12373;0,01079
66,10000;2,20336;1005,49571;0,01081
66,20000;2,20669;1005,67425;0,01082
66,30000;2,21003;1006,48589;0,01084
66,40000;2,21333;1007,83007;0,01086
66,50000;2,21664;1009,34980;0,01088
66,60000;2,21991;1011,03876;0,01089
66,70000;2,22327;1011,99131;0,01091
66,80000;2,22664;1013,51412;0,01093
66,90000;2,23003;1014,09694;0,01095
67,00000;2,23336;1015,25942;0,01097
67,10000;2,23672;1016,55666;0,01098
67,20000;2,24005;1017,41524;0,01100
67,30000;2,24336;1019,17312;0,01102
67,40000;2,24672;1020,76484;0,01104
67,50000;2,25008;1021,33825;0,01105
67,60000;2,25339;1023,98293;0,01107
67,70000;2,25669;1024,46862;0,01109
67,80000;2,26000;1025,89745;0,01110
67,90000;2,26325;1026,87823;0,01112
68,00000;2,26658;1028,11586;0,01114
68,10000;2,26994;1029,32537;0,01116
68,20000;2,27333;1031,32762;0,01117
68,30000;2,27669;1032,21443;0,01119
68,40000;2,28003;1033,03846;0,01121
68,50000;2,28336;1034,25113;0,01123
68,60000;2,28664;1035,77711;0,01125
68,70000;2,29000;1036,53222;0,01126
68,80000;2,29336;1038,39356;0,01128
68,90000;2,29672;1039,30533;0,01130
69,00000;2,30005;1041,01617;0,01132
69,10000;2,30336;1042,24449;0,01134
69,20000;2,30664;1043,39132;0,01135
69,30000;2,30994;1043,92711;0,01137
69,40000;2,31330;1046,31167;0,01139
69,50000;2,31666;1046,98539;0,01141
69,60000;2,32000;1048,08211;0,01143
69,70000;2,32336;1048,84347;0,01144
69,80000;2,32666;1050,66085;0,01146
69,90000;2,32994;1052,21821;0,01148
70,00000;2,33325;1052,82292;0,01149
70,10000;2,33666;1054,52128;0,01151
70,20000;2,34003;1055,94387;0,01153
70,30000;2,34342;1056,84940;0,01155
70,40000;2,34675;1058,10277;0,01157
70,50000;2,35005;1058,62292;0,01158
70,60000;2,35330;1060,71914;0,01160
70,70000;2,35664;1061,83151;0,01162
70,80000;2,35997;1062,97834;0,01164
70,90000;2,36330;1064,14091;0,01166
71,00000;2,36666;1065,31903;0,01167
71,10000;2,37000;1066,97977;0,01169
71,20000;2,37330;1068,19551;0,01171
71,30000;2,37664;1068,70942;0,01172
71,40000;2,38003;1070,25104;0,01175
71,50000;2,38339;1071,13784;0,01176
71,60000;2,38672;1073,34061;0,01178
71,70000;2,39005;1073,84510;0,01180
71,80000;2,39336;1075,17997;0,01182
71,90000;2,39664;1076,30175;0,01184
72,00000;2,39994;1077,64285;0,01185
72,10000;2,40330;1079,06535;0,01187
72,20000;2,40666;1080,23100;0,01189
72,30000;2,41000;1080,97987;0,01191
72,40000;2,41330;1082,68140;0,01192
72,50000;2,41664;1083,79060;0,01194
72,60000;2,41991;1085,10666;0,01196
72,70000;2,42327;1086,45400;0,01198
72,80000;2,42664;1087,52567;0,01199
72,90000;2,43000;1088,63171;0,01201
73,00000;2,43336;1089,68774;0,01203
73,10000;2,43669;1091,21371;0,01205
73,20000;2,44000;1092,42005;0,01207
73,30000;2,44333;1093,46658;0,01208
73,40000;2,44669;1095,17435;0,01210
73,50000;2,45003;1095,44694;0,01212
73,60000;2,45336;1096,95410;0,01214
73,70000;2,45669;1098,87486;0,01216
73,80000;2,46003;1099,01903;0,01217
73,90000;2,46327;1100,71739;0,01219
74,00000;2,46661;1102,13049;0,01221
74,10000;2,47000;1103,06116;0,01223
74,20000;2,47333;1104,38969;0,01225
74,30000;2,47666;1106,30421;0,01226
74,40000;2,48005;1106,78989;0,01228
74,50000;2,48336;1107,89286;0,01230
74,60000;2,48664;1109,57557;0,01232
74,70000;2,49000;1110,56883;0,01233
74,80000;2,49336;1111,65298;0,01235
74,90000;2,49669;1113,60196;0,01237
75,00000;2,50003;1113,94357;0,01239
75,10000;2,50336;1115,13734;0,01241
75,20000;2,50664;1116,90154;0,01243
75,30000;2,50994;1117,42476;0,01244
75,40000;2,51333;1118,23631;0,01246
75,50000;2,51669;1120,09132;0,01248
75,60000;2,52005;1121,73641;0,01250
75,70000;2,52339;1122,15942;0,01252
75,80000;2,52669;1124,32148;0,01253
75,90000;2,52997;1125,07660;0,01255
76,00000;2,53327;1126,02599;0,01257
76,10000;2,53666;1128,18182;0,01259
76,20000;2,54003;1128,65185;0,01261
76,30000;2,54336;1129,29419;0,01262
76,40000;2,54669;1131,01443;0,01264
76,50000;2,55003;1132,28662;0,01266
76,60000;2,55327;1133,47732;0,01268
76,70000;2,55664;1135,02210;0,01270
76,80000;2,56000;1135,94644;0,01272
76,90000;2,56333;1136,81760;0,01273
77,00000;2,56666;1138,05840;0,01275
77,10000;2,57000;1139,91024;0,01277
77,20000;2,57330;1139,67834;0,01279
77,30000;2,57661;1141,80911;0,01280
77,40000;2,58000;1142,83059;0,01282
77,50000;2,58339;1143,73304;0,01284
77,60000;2,58669;1145,62558;0,01286
77,70000;2,59005;1146,46852;0,01288
77,80000;2,59336;1148,41126;0,01290
77,90000;2,59661;1149,45155;0,01291
78,00000;2,59994;1150,47926;0,01293
78,10000;2,60333;1152,35932;0,01295
78,20000;2,60669;1153,23979;0,01297
78,30000;2,61003;1154,21750;0,01299
78,40000;2,61336;1154,88488;0,01300
78,50000;2,61666;1156,18529;0,01302
78,60000;2,61994;1157,19419;0,01304
78,70000;2,62330;1159,34378;0,01306
78,80000;2,62666;1160,46239;0,01308
78,90000;2,63000;1162,05420;0,01309
79,00000;2,63336;1162,37067;0,01311
79,10000;2,63666;1163,49868;0,01313
79,20000;2,63997;1164,87741;0,01315
79,30000;2,64330;1166,23100;0,01317
79,40000;2,64666;1167,91371;0,01319
79,50000;2,65005;1168,24582;0,01320
79,60000;2,65339;1169,73417;0,01322
79,70000;2,65672;1170,69930;0,01324
79,80000;2,66003;1171,83672;0,01326
79,90000;2,66330;1173,77006;0,01328
80,00000;2,66664;1174,77588;0,01330
80,10000;2,67000;1175,91955;0,01332
80,20000;2,67336;1176,51494;0,01333
80,30000;2,67672;1177,84981;0,01335
80,40000;2,68003;1178,38560;0,01337
80,50000;2,68336;1179,98989;0,01339
80,60000;2,68658;1181,78222;0,01341
80,70000;2,68994;1182,45278;0,01342
80,80000;2,69330;1184,26392;0,01344
80,90000;2,69666;1185,67394;0,01346
81,00000;2,70003;1186,30370;0,01348
81,10000;2,70336;1187,63233;0,01350
81,20000;2,70664;1189,02987;0,01352
81,30000;2,70994;1189,14889;0,01353
81,40000;2,71333;1190,77824;0,01355
81,50000;2,71672;1192,30114;0,01357
81,60000;2,72005;1193,80513;0,01359
81,70000;2,72339;1194,10288;0,01361
81,80000;2,72669;1195,47211;0,01363
81,90000;2,72994;1196,63468;0,01365
82,00000;2,73324;1197,95697;0,01366
82,10000;2,73661;1199,25728;0,01368
82,20000;2,74000;1200,05636;0,01370
82,30000;2,74336;1201,92384;0,01372
82,40000;2,74672;1203,48744;0,01374
82,50000;2,75003;1203,47179;0,01376
82,60000;2,75330;1204,87241;0,01377
82,70000;2,75666;1206,52691;0,01379
82,80000;2,76000;1207,42619;0,01381
82,90000;2,76333;1209,03365;0,01383
83,00000;2,76669;1210,28386;0,01385
83,10000;2,77000;1210,84470;0,01387
83,20000;2,77330;1212,51484;0,01389
83,30000;2,77664;1213,85595;0,01391
83,40000;2,78003;1214,64245;0,01393
83,50000;2,78336;1216,16842;0,01394
83,60000;2,78669;1218,03284;0,01396
83,70000;2,79003;1217,56280;0,01398
83,80000;2,79336;1219,59951;0,01400
83,90000;2,79664;1220,94685;0,01402
84,00000;2,79997;1220,99388;0,01403
84,10000;2,80336;1222,85206;0,01405
84,20000;2,80672;1225,02660;0,01407
84,30000;2,81008;1224,88560;0,01409
84,40000;2,81339;1226,69674;0,01411
84,50000;2,81669;1227,61484;0,01413
84,60000;2,81994;1229,51679;0,01415
84,70000;2,82330;1230,60094;0,01417
84,80000;2,82663;1231,67578;0,01418
84,90000;2,82997;1232,32752;0,01420
85,00000;2,83330;1233,76260;0,01422
85,10000;2,83663;1235,12251;0,01424
85,20000;2,83994;1235,66771;0,01426
85,30000;2,84327;1236,66413;0,01428
85,40000;2,84666;1238,55360;0,01430
85,50000;2,85003;1239,71608;0,01432
85,60000;2,85336;1240,43990;0,01433
85,70000;2,85672;1242,00350;0,01435
85,80000;2,86003;1242,59889;0,01437
85,90000;2,86327;1244,40370;0,01439
86,00000;2,86661;1245,80124;0,01441
86,10000;2,87000;1246,65666;0,01443
86,20000;2,87336;1247,40554;0,01445
86,30000;2,87669;1248,87200;0,01447
86,40000;2,88003;1249,96873;0,01449
86,50000;2,88333;1250,94634;0,01450
86,60000;2,88661;1252,99562;0,01452
86,70000;2,88997;1253,23683;0,01454
86,80000;2,89333;1254,80667;0,01456
86,90000;2,89669;1256,19164;0,01458
87,00000;2,90005;1256,55206;0,01460
87,10000;2,90339;1258,43203;0,01462
87,20000;2,90669;1259,92671;0,01464
87,30000;2,91000;1260,88243;0,01465
87,40000;2,91333;1261,93836;0,01467
87,50000;2,91669;1263,34531;0,01469
87,60000;2,92005;1263,90299;0,01471
87,70000;2,92336;1265,92722;0,01473
87,80000;2,92666;1266,47241;0,01475
87,90000;2,92991;1267,78530;0,01477
88,00000;2,93324;1268,40267;0,01478
88,10000;2,93666;1270,13540;0,01481
88,20000;2,94003;1270,58979;0,01483
88,30000;2,94339;1272,63898;0,01484
88,40000;2,94675;1274,06791;0,01486
88,50000;2,95005;1274,38745;0,01488
88,60000;2,95333;1275,51546;0,01490
88,70000;2,95666;1277,13233;0,01492
88,80000;2,96003;1277,94705;0,01494
88,90000;2,96336;1279,51372;0,01496
89,00000;2,96669;1280,64184;0,01498
89,10000;2,97000;1281,21525;0,01500
89,20000;2,97330;1282,46546;0,01501
89,30000;2,97658;1284,05094;0,01503
89,40000;2,97994;1284,91893;0,01505
89,50000;2,98333;1285,60197;0,01507
89,60000;2,98669;1286,94940;0,01509
89,70000;2,99005;1288,05544;0,01511
89,80000;2,99336;1288,92967;0,01513
89,90000;2,99666;1291,48029;0,01515
90,00000;3,00000;1291,92527;0,01517
90,10000;3,00336;1292,51434;0,01519
90,20000;3,00669;1294,41004;0,01521
90,30000;3,01005;1295,76372;0,01522
90,40000;3,01339;1296,39665;0,01524
90,50000;3,01666;1298,43969;0,01526
90,60000;3,01991;1298,55247;0,01528
90,70000;3,02327;1299,54573;0,01530
90,80000;3,02663;1301,16260;0,01532
90,90000;3,03000;1301,68898;0,01534
91,00000;3,03333;1303,02701;0,01536
91,10000;3,03666;1304,33673;0,01538
91,20000;3,03997;1304,86945;0,01539
91,30000;3,04327;1306,01628;0,01541
91,40000;3,04666;1308,15953;0,01544
91,50000;3,05005;1308,54184;0,01545
91,60000;3,05339;1309,65421;0,01547
91,70000;3,05672;1311,48724;0,01549
91,80000;3,06005;1311,86955;0,01551
91,90000;3,06330;1313,41117;0,01553
92,00000;3,06661;1314,82435;0,01555
92,10000;3,06994;1315,72988;0,01557
92,20000;3,07333;1316,87047;0,01559
92,30000;3,07669;1317,71648;0,01561
92,40000;3,08002;1319,21740;0,01563
92,50000;3,08336;1320,20758;0,01565
92,60000;3,08663;1321,65523;0,01567
92,70000;3,09000;1322,40718;0,01569
92,80000;3,09339;1323,20309;0,01571
92,90000;3,09675;1324,68520;0,01573
93,00000;3,10008;1325,75063;0,01575
93,10000;3,10342;1327,02272;0,01577
93,20000;3,10666;1328,24481;0,01578
93,30000;3,10997;1328,66781;0,01580
93,40000;3,11330;1331,04604;0,01582
93,50000;3,11666;1331,60073;0,01584
93,60000;3,12000;1333,13611;0,01586
93,70000;3,12330;1334,38939;0,01588
93,80000;3,12663;1335,30125;0,01590
93,90000;3,12988;1335,50493;0,01592
94,00000;3,13322;1336,90247;0,01594
94,10000;3,13661;1338,65401;0,01596
94,20000;3,14000;1339,39981;0,01598
94,30000;3,14339;1340,97906;0,01600
94,40000;3,14675;1342,16659;0,01602
94,50000;3,15005;1342,48305;0,01604
94,60000;3,15333;1344,20022;0,01606
94,70000;3,15666;1345,15278;0,01608
94,80000;3,16000;1345,62273;0,01610
94,90000;3,16333;1347,55298;0,01612
95,00000;3,16666;1348,63397;0,01614
95,10000;3,17000;1349,18857;0,01616
95,20000;3,17330;1350,57354;0,01617
95,30000;3,17661;1352,09020;0,01619
95,40000;3,18000;1352,59461;0,01622
95,50000;3,18336;1353,54716;0,01624
95,60000;3,18669;1355,92865;0,01625
95,70000;3,19005;1356,17927;0,01627
95,80000;3,19336;1357,13806;0,01629
95,90000;3,19666;1358,93673;0,01631
96,00000;3,20000;1360,02395;0,01633
96,10000;3,20339;1361,16454;0,01635
96,20000;3,20672;1361,92916;0,01638
96,30000;3,21000;1362,54327;0,01639
96,40000;3,21333;1364,63949;0,01641
96,50000;3,21663;1365,42600;0,01643
96,60000;3,21991;1366,88929;0,01645
96,70000;3,22327;1367,62885;0,01647
96,80000;3,22663;1368,98244;0,01649
96,90000;3,23000;1369,64051;0,01651
97,00000;3,23336;1370,96280;0,01653
97,10000;3,23672;1372,41986;0,01655
97,20000;3,24002;1373,14368;0,01657
97,30000;3,24330;1374,42211;0,01659
97,40000;3,24669;1375,44675;0,01661
97,50000;3,25005;1376,18622;0,01663
97,60000;3,25339;1377,74665;0,01665
97,70000;3,25672;1378,48612;0,01667
97,80000;3,26000;1379,91188;0,01669
97,90000;3,26324;1380,69522;0,01671
98,00000;3,26658;1381,99870;0,01673
98,10000;3,26994;1383,21444;0,01675
98,20000;3,27333;1384,27354;0,01677
98,30000;3,27669;1385,08826;0,01679
98,40000;3,28005;1386,41680;0,01681
98,50000;3,28336;1387,55115;0,01683
98,60000;3,28666;1388,75442;0,01685
98,70000;3,29000;1389,92630;0,01687
98,80000;3,29339;1391,31434;0,01689
98,90000;3,29672;1391,69665;0,01691
99,00000;3,30005;1393,34481;0,01693
99,10000;3,30336;1394,39451;0,01695
99,20000;3,30663;1395,31260;0,01697
99,30000;3,30994;1395,78888;0,01699
99,40000;3,31330;1397,63765;0,01701
99,50000;3,31666;1397,92589;0,01703
99,60000;3,32000;1400,15380;0,01705
99,70000;3,32333;1401,04368;0,01708
99,80000;3,32666;1401,47293;0,01710
99,90000;3,32994;1403,05534;0,01712
100,00000;3,33324;1404,11751;0,01714
100,10000;3,33663;1405,49624;0,01715
100,20000;3,34002;1406,60238;0,01718
100,30000;3,34339;1407,35442;0,01720
100,40000;3,34672;1408,43540;0,01722
100,50000;3,35002;1409,63243;0,01724
100,60000;3,35327;1410,51915;0,01726
100,70000;3,35663;1411,60646;0,01727
100,80000;3,36000;1413,07916;0,01730
100,90000;3,36336;1413,90637;0,01732
101,00000;3,36669;1415,30074;0,01734
101,10000;3,37002;1416,43193;0,01736
101,20000;3,37333;1416,78602;0,01738
101,30000;3,37666;1418,33080;0,01740
101,40000;3,38002;1419,45882;0,01742
101,50000;3,38341;1419,88806;0,01744
101,60000;3,38675;1422,21935;0,01746
101,70000;3,39005;1423,10616;0,01748
101,80000;3,39336;1423,04031;0,01750
101,90000;3,39663;1424,16833;0,01752
102,00000;3,39991;1425,52825;0,01754
102,10000;3,40327;1426,70646;0,01756
102,20000;3,40666;1427,44593;0,01758
102,30000;3,41000;1429,27272;0,01760
102,40000;3,41333;1430,00903;0,01762
102,50000;3,41666;1430,97416;0,01764
102,60000;3,41991;1433,14870;0,01766
102,70000;3,42330;1433,55606;0,01768
102,80000;3,42663;1434,31127;0,01771
102,90000;3,43000;1435,86854;0,01773
103,00000;3,43336;1436,58295;0,01775
103,10000;3,43669;1437,58254;0,01777
103,20000;3,44000;1439,42190;0,01779
103,30000;3,44333;1439,92947;0,01781
103,40000;3,44669;1441,45228;0,01783
103,50000;3,45005;1442,30779;0,01785
103,60000;3,45336;1443,07856;0,01787
103,70000;3,45669;1444,50115;0,01789
103,80000;3,46002;1445,12467;0,01792
103,90000;3,46327;1446,24962;0,01794
104,00000;3,46658;1447,34941;0,01796
104,10000;3,46997;1449,21383;0,01798
104,20000;3,47333;1449,94706;0,01800
104,30000;3,47669;1450,55810;0,01802
104,40000;3,48005;1451,71741;0,01804
104,50000;3,48339;1452,72948;0,01806
104,60000;3,48666;1454,61271;0,01808
104,70000;3,49000;1455,12344;0,01810
104,80000;3,49336;1456,12303;0,01812
104,90000;3,49669;1456,83121;0,01814
105,00000;3,50002;1458,50759;0,01816
105,10000;3,50336;1459,35668;0,01818
105,20000;3,50666;1460,53173;0,01820
105,30001;3,50994;1461,48121;0,01822
105,40001;3,51333;1462,93193;0,01825
105,50001;3,51669;1463,47713;0,01827
105,60001;3,52005;1465,12846;0,01829
105,70001;3,52339;1464,99379;0,01831
105,80001;3,52669;1466,42262;0,01833
105,90001;3,52994;1467,95800;0,01835
106,00001;3,53327;1468,59717;0,01837
106,10001;3,53666;1470,07303;0,01839
106,20001;3,54002;1471,14471;0,01841
106,30001;3,54339;1471,68990;0,01843
106,40001;3,54669;1472,88060;0,01845
106,50001;3,55002;1473,88643;0,01847
106,60001;3,55324;1475,75391;0,01849
106,70001;3,55661;1476,15811;0,01851
106,80001;3,56000;1476,85688;0,01854
106,90001;3,56336;1478,42048;0,01856
107,00001;3,56669;1479,51404;0,01858
107,10001;3,57000;1480,73612;0,01860
107,20001;3,57333;1481,42232;0,01862
107,30001;3,57666;1482,40617;0,01864
107,40001;3,58002;1484,27999;0,01866
107,50001;3,58339;1483,97600;0,01868
107,60001;3,58672;1485,48009;0,01870
107,70001;3,59002;1487,00289;0,01872
107,80001;3,59333;1487,76118;0,01875
107,90001;3,59663;1488,85166;0,01876
108,00001;3,59997;1489,80739;0,01878
108,10001;3,60336;1490,91342;0,01881
108,20001;3,60669;1492,02272;0,01883
108,30001;3,61002;1493,06608;0,01885
108,40001;3,61333;1494,20667;0,01887
108,50001;3,61663;1495,23756;0,01889
108,60001;3,61991;1496,10862;0,01891
108,70001;3,62327;1497,45913;0,01893
108,80001;3,62663;1497,86025;0,01896
108,90001;3,63002;1499,34553;0,01898
109,00001;3,63336;1500,94666;0,01900
109,10001;3,63669;1502,05903;0,01902
109,20001;3,63997;1502,55095;0,01904
109,30001;3,64327;1503,67273;0,01906
109,40001;3,64666;1504,65034;0,01908
109,50001;3,65005;1506,22334;0,01910
109,60001;3,65339;1506,50535;0,01913
109,70001;3,65672;1508,08459;0,01915
109,80001;3,66005;1509,31291;0,01917
109,90001;3,66333;1510,16526;0,01919
110,00001;3,66663;1511,39665;0,01921
110,10001;3,67002;1512,23019;0,01923
110,20001;3,67339;1513,13888;0,01926
110,30001;3,67672;1514,40157;0,01927
110,40001;3,68005;1515,31966;0,01930
110,50001;3,68336;1515,67375;0,01932
110,60001;3,68661;1517,22170;0,01934
110,70001;3,68994;1518,11475;0,01936
110,80001;3,69330;1519,25525;0,01938
110,90001;3,69666;1520,45852;0,01940
111,00001;3,70000;1521,87487;0,01942
111,10001;3,70333;1521,82467;0,01945
111,20001;3,70663;1523,83326;0,01947
111,30001;3,70994;1524,70116;0,01949
111,40001;3,71330;1525,34982;0,01951
111,50001;3,71666;1526,45586;0,01953
111,60001;3,72002;1527,60269;0,01955
111,70001;3,72336;1528,53960;0,01957
111,80001;3,72669;1529,87130;0,01959
111,90001;3,72994;1530,62018;0,01962
112,00001;3,73327;1531,70750;0,01964
112,10001;3,73661;1532,32170;0,01966
112,20001;3,74000;1534,12027;0,01968
112,30001;3,74339;1535,09788;0,01970
112,40001;3,74672;1535,15432;0,01972
112,50001;3,75005;1536,94656;0,01975
112,60001;3,75330;1537,92733;0,01977
112,70001;3,75666;1538,94890;0,01979
112,80001;3,76002;1540,01424;0,01981
112,90001;3,76336;1540,64093;0,01983
113,00001;3,76669;1541,56210;0,01986
113,10001;3,77000;1543,52682;0,01988
113,20001;3,77330;1544,16915;0,01990
113,30001;3,77663;1545,72017;0,01992
113,40001;3,78000;1545,95207;0,01994
113,50001;3,78333;1546,80125;0,01997
113,60001;3,78669;1548,39298;0,01999
113,70001;3,79005;1549,09799;0,02001
113,80001;3,79339;1550,13520;0,02003
113,90001;3,79666;1551,62988;0,02005
114,00001;3,80000;1552,04348;0,02007
114,10001;3,80336;1553,85453;0,02010
114,20001;3,80672;1553,84829;0,02012
114,30001;3,81008;1555,40565;0,02014
114,40001;3,81339;1555,49962;0,02016
114,50001;3,81669;1557,46741;0,02018
114,60001;3,81994;1558,07845;0,02020
114,70001;3,82330;1559,27856;0,02023
114,80001;3,82663;1559,30044;0,02025
114,90001;3,82997;1561,63173;0,02027
115,00001;3,83330;1561,71005;0,02029
115,10001;3,83663;1563,31751;0,02032
115,20001;3,83994;1563,51794;0,02034
115,30001;3,84327;1564,78696;0,02036
115,40001;3,84666;1565,89933;0,02038
115,50001;3,85005;1567,01170;0,02041
115,60001;3,85339;1567,64481;0,02043
115,70001;3,85672;1569,17386;0,02045
115,80001;3,86002;1570,16087;0,02047
115,90001;3,86330;1570,94430;0,02050
116,00001;3,86661;1571,99390;0,02052
116,10001;3,87002;1573,56374;0,02054
116,20001;3,87336;1574,04318;0,02056
116,30001;3,87669;1575,26527;0,02058
116,40001;3,88002;1576,23980;0,02061
116,50001;3,88336;1577,25178;0,02063
116,60001;3,88661;1578,43307;0,02065
116,70001;3,88997;1579,41077;0,02068
116,80001;3,89333;1580,75504;0,02070
116,90001;3,89669;1581,72324;0,02072
117,00001;3,90005;1582,49084;0,02074
117,10001;3,90339;1582,29042;0,02077
117,20001;3,90666;1584,06068;0,02079
117,30001;3,90994;1585,03838;0,02081
117,40001;3,91333;1586,02539;0,02083
117,50001;3,91666;1587,17856;0,02085
117,60001;3,92002;1588,18755;0,02088
117,70001;3,92336;1589,76354;0,02090
117,80001;3,92666;1589,70412;0,02092
117,90001;3,92991;1591,00760;0,02094
118,00001;3,93324;1592,31741;0,02097
118,10001;3,93663;1593,35136;0,02099
118,20001;3,94002;1594,20054;0,02101
118,30001;3,94341;1595,97099;0,02104
118,40001;3,94675;1596,64154;0,02106
118,50001;3,95008;1596,92653;0,02108
118,60001;3,95336;1598,15177;0,02110
118,70001;3,95669;1599,09185;0,02113
118,80001;3,96005;1599,46475;0,02115
118,90001;3,96336;1600,82765;0,02117
119,00001;3,96669;1602,54799;0,02119
119,10001;3,97000;1603,29379;0,02122
119,20001;3,97327;1604,16476;0,02124
119,30001;3,97658;1605,13930;0,02126
119,40001;3,97997;1605,42130;0,02128
119,50001;3,98333;1606,83133;0,02131
119,60001;3,98669;1608,15995;0,02133
119,70001;3,99002;1608,78655;0,02135
119,80001;3,99336;1609,45095;0,02138
119,90001;3,99663;1610,77008;0,02140
120,00001;3,99994;1611,43113;0,02142
120,10001;4,00333;1612,61261;0,02144
120,20001;4,00669;1613,81271;0,02147
120,30001;4,01002;1614,93439;0,02149
120,40001;4,01336;1615,64574;0,02151
120,50001;4,01669;1616,29114;0,02153
120,60001;4,01994;1617,56016;0,02156
120,70001;4,02327;1618,30280;0,02158
120,80001;4,02663;1619,04227;0,02160
120,90001;4,03000;1619,98868;0,02162
121,00001;4,03333;1621,26385;0,02165
121,10001;4,03666;1622,57999;0,02167
121,20001;4,03997;1622,74297;0,02169
121,30001;4,04327;1624,25637;0,02172
121,40001;4,04669;1624,84851;0,02174
121,50001;4,05005;1626,35576;0,02176
121,60001;4,05341;1626,95106;0,02178
121,70001;4,05675;1628,10422;0,02181
121,80001;4,06005;1628,44267;0,02183
121,90001;4,06330;1630,14401;0,02185
122,00001;4,06660;1630,76762;0,02188
122,10001;4,06994;1632,28735;0,02190
122,20001;4,07333;1633,31814;0,02192
122,30001;4,07666;1634,61864;0,02195
122,40001;4,08002;1634,74698;0,02197
122,50001;4,08336;1635,71518;0,02199
122,60001;4,08663;1637,20995;0,02202
122,70001;4,09000;1637,68940;0,02204
122,80001;4,09339;1638,25955;0,02206
122,90001;4,09672;1639,98306;0,02208
123,00001;4,10005;1640,55321;0,02211
123,10001;4,10339;1641,42437;0,02213
123,20001;4,10666;1642,47397;0,02215
123,30001;4,10994;1643,34197;0,02218
123,40001;4,11330;1643,77131;0,02220
123,50001;4,11666;1645,33798;0,02222
123,60001;4,11997;1645,93961;0,02225
123,70001;4,12330;1647,35597;0,02227
123,80001;4,12660;1647,26824;0,02229
123,90001;4,12988;1648,83491;0,02231
124,00001;4,13321;1649,53675;0,02233
124,10001;4,13666;1650,78696;0,02236
124,20001;4,14002;1651,34165;0,02238
124,30001;4,14341;1652,76118;0,02241
124,40001;4,14675;1653,46302;0,02243
124,50001;4,15008;1654,57539;0,02245
124,60001;4,15333;1655,84758;0,02248
124,70001;4,15666;1656,59953;0,02250
124,80001;4,16002;1657,53961;0,02252
124,90001;4,16333;1658,84942;0,02255
125,00001;4,16666;1659,61068;0,02257
125,10001;4,17000;1660,33152;0,02260
125,20001;4,17330;1661,38429;0,02262
125,30001;4,17660;1662,06732;0,02264
125,40001;4,17997;1663,03553;0,02267
125,50001;4,18333;1664,12611;0,02269
125,60001;4,18669;1664,43940;0,02271
125,70001;4,19005;1666,14074;0,02274
125,80001;4,19336;1666,55760;0,02276
125,90001;4,19666;1667,71077;0,02278
126,00001;4,19997;1668,76353;0,02281
126,10001;4,20336;1669,88522;0,02283
126,20001;4,20669;1670,07633;0,02285
126,30001;4,21002;1671,70260;0,02288
126,40001;4,21333;1672,18838;0,02290
126,50001;4,21663;1672,66466;0,02292
126,60001;4,21991;1674,31906;0,02295
126,70001;4,22327;1675,36568;0,02297
126,80001;4,22663;1675,57243;0,02299
126,90001;4,23002;1676,62520;0,02302
127,00001;4,23336;1678,13562;0,02304
127,10001;4,23672;1678,47704;0,02307
127,20001;4,24002;1679,79952;0,02309
127,30001;4,24333;1680,34155;0,02311
127,40001;4,24669;1682,13062;0,02314
127,50001;4,25005;1682,58511;0,02316
127,60001;4,25339;1683,41845;0,02319
127,70001;4,25669;1683,60658;0,02321
127,80001;4,26000;1685,07621;0,02323
127,90001;4,26324;1686,03808;0,02326
128,00001;4,26658;1686,61159;0,02328
128,10001;4,26994;1687,57662;0,02330
128,20001;4,27333;1688,85812;0,02333
128,30001;4,27672;1689,21538;0,02335
128,40001;4,28005;1690,07089;0,02337
128,50001;4,28339;1691,34606;0,02340
128,60001;4,28663;1692,88144;0,02342
128,70001;4,28999;1692,65270;0,02345
128,80001;4,29339;1694,11916;0,02347
128,90001;4,29672;1694,70515;0,02350
129,00001;4,30005;1696,58829;0,02352
129,10001;4,30339;1697,50322;0,02354
129,20001;4,30663;1697,82285;0,02357
129,30001;4,30991;1698,13000;0,02359
129,40001;4,31327;1699,24553;0,02361
129,50001;4,31666;1699,73746;0,02364
129,60001;4,31999;1701,00965;0,02366
129,70001;4,32333;1702,19708;0,02369
129,80001;4,32666;1702,88347;0,02371
129,90001;4,32994;1703,26885;0,02373
130,00001;4,33324;1704,82919;0,02376
130,10001;4,33663;1705,13634;0,02378
130,20001;4,34002;1706,34892;0,02381
130,30001;4,34339;1706,94739;0,02383
130,40001;4,34675;1707,75279;0,02385
130,50001;4,35005;1708,78042;0,02388
130,60001;4,35330;1709,71118;0,02390
130,70001;4,35663;1710,25638;0,02393
130,80001;4,36000;1711,83553;0,02395
130,90001;4,36333;1712,32130;0,02398
131,00001;4,36666;1714,34544;0,02400
131,10001;4,36999;1714,65557;0,02402
131,20001;4,37330;1715,42335;0,02405
131,30001;4,37660;1715,73050;0,02407
131,40001;4,38002;1716,83971;0,02410
131,50001;4,38339;1717,56353;0,02412
131,60001;4,38675;1718,36559;0,02415
131,70001;4,39005;1719,56886;0,02417
131,80001;4,39339;1720,50893;0,02420
131,90001;4,39663;1720,77846;0,02422
132,00001;4,39997;1721,83756;0,02424
132,10001;4,40330;1722,89964;0,02427
132,20001;4,40666;1723,44185;0,02429
132,30001;4,40999;1724,15618;0,02432
132,40001;4,41330;1724,85802;0,02434
132,50001;4,41660;1725,87335;0,02437
132,60001;4,41991;1726,52192;0,02439
132,70001;4,42327;1728,20464;0,02441
132,80001;4,42663;1728,45833;0,02444
132,90001;4,42999;1729,89350;0,02446
133,00001;4,43336;1730,62980;0,02449
133,10001;4,43669;1731,60117;0,02452
133,20001;4,43999;1732,42539;0,02454
133,30001;4,44333;1732,65096;0,02456
133,40001;4,44666;1734,03900;0,02459
133,50001;4,45002;1734,71272;0,02461
133,60001;4,45336;1735,69340;0,02464
133,70001;4,45672;1736,37979;0,02466
133,80001;4,46002;1737,08163;0,02469
133,90001;4,46330;1737,99656;0,02471
134,00001;4,46660;1738,56057;0,02473
134,10001;4,46997;1740,03951;0,02476
134,20001;4,47333;1740,88236;0,02478
134,30001;4,47666;1741,86639;0,02481
134,40001;4,48002;1742,48051;0,02484
134,50001;4,48336;1743,41425;0,02486
134,60001;4,48660;1744,06916;0,02488
134,70001;4,48999;1744,66129;0,02491
134,80001;4,49336;1745,77683;0,02493
134,90001;4,49672;1746,20934;0,02496
135,00001;4,50005;1747,50965;0,02498
135,10001;4,50336;1748,13624;0,02501
135,20001;4,50666;1748,73788;0,02503
135,30001;4,50994;1750,11028;0,02506
135,40001;4,51333;1750,32038;0,02508
135,50001;4,51672;1751,42642;0,02511
135,60001;4,52008;1752,22233;0,02514
135,70001;4,52338;1753,25014;0,02516
135,80001;4,52669;1753,68562;0,02518
135,90001;4,52997;1754,69462;0,02521
136,00001;4,53330;1755,53430;0,02523
136,10001;4,53666;1756,54013;0,02526
136,20001;4,54002;1756,38665;0,02528
136,30001;4,54336;1757,87807;0,02531
136,40001;4,54669;1758,31672;0,02533
136,50001;4,55002;1759,34136;0,02536
136,60001;4,55327;1760,26579;0,02538
136,70001;4,55663;1761,09299;0,02540
136,80001;4,55999;1761,93900;0,02543
136,90001;4,56333;1762,43410;0,02546
137,00001;4,56666;1763,77520;0,02548
137,10001;4,56999;1764,23900;0,02551
137,20001;4,57330;1765,82765;0,02554
137,30001;4,57663;1765,72744;0,02556
137,40001;4,57999;1767,21253;0,02558
137,50001;4,58336;1767,41630;0,02561
137,60001;4,58672;1768,90474;0,02564
137,70001;4,59002;1769,41548;0,02566
137,80001;4,59336;1770,35239;0,02569
137,90001;4,59660;1770,68450;0,02571
137,93801;4,59786;1497,71608;0,02728
137,94401;4,59806;1188,48151;0,02896
137,94801;4,59820;976,96586;0,03011