File: 02_Appendices/Appendix_C_Experimental_Data_and_Analysis Reports/C_1_Materials_Tests/C_1_1_Tensile_tests/C_1_1_3_Smooth Comum/Specimen_RawData_4.csv
Text Inputs : Specimen label;"1"
Dimension : Length;50,00000;mm
Dimension : Final length;100,00000;mm
Test : Rate 1;2,00000;mm/min
General : Unique Identifier;"{52134FE5-1066-4B6D-821D-409424F962F6}"

Time;Extension;Load;Strain 1
(sec);(mm);(N);(mm/mm)
0,00000;0,00000;28,14633;0,00028
0,20000;0,00493;27,77658;0,00028
0,40000;0,01211;29,98564;0,00028
0,60000;0,01926;35,66968;0,00033
0,80000;0,02632;42,85149;0,00038
1,00000;0,03322;48,90527;0,00043
1,20000;0,03994;54,35116;0,00048
1,40000;0,04664;59,84405;0,00052
1,60000;0,05336;63,77337;0,00055
1,80000;0,06003;64,82621;0,00058
2,00000;0,06658;66,84100;0,00059
2,20000;0,07330;66,67179;0,00061
2,40000;0,08003;67,50842;0,00062
2,60000;0,08664;68,37951;0,00062
2,80000;0,09339;68,30117;0,00063
3,00000;0,10006;68,27611;0,00064
3,20000;0,10664;68,46411;0,00065
3,40000;0,11328;69,15660;0,00065
3,60000;0,11997;70,12796;0,00066
3,80000;0,12664;69,49814;0,00067
4,00000;0,13328;70,32224;0,00068
4,20000;0,14003;69,52321;0,00068
4,40000;0,14675;70,16556;0,00068
4,60000;0,15333;71,07739;0,00069
4,80000;0,16000;71,19332;0,00070
5,00000;0,16667;71,32806;0,00070
5,20000;0,17330;71,62574;0,00071
5,40000;0,17997;72,60650;0,00071
5,60000;0,18667;72,92298;0,00071
5,80000;0,19336;71,11499;0,00071
6,00000;0,19997;71,70407;0,00072
6,20000;0,20669;71,36253;0,00072
6,40000;0,21333;72,17096;0,00072
6,60000;0,21991;72,10829;0,00073
6,80000;0,22664;71,86388;0,00073
7,00000;0,23336;71,70720;0,00073
7,20000;0,24003;72,49370;0,00073
7,40000;0,24672;72,45609;0,00073
7,60000;0,25342;72,16783;0,00074
7,80000;0,26003;72,65350;0,00074
8,00000;0,26658;72,98251;0,00074
8,20000;0,27333;72,69423;0,00074
8,40000;0,28003;73,41492;0,00075
8,60000;0,28664;74,12621;0,00075
8,80000;0,29336;72,94178;0,00075
9,00000;0,30006;73,64367;0,00075
9,20000;0,30664;73,81287;0,00076
9,40000;0,31328;74,39882;0,00076
9,60000;0,32000;75,17592;0,00076
9,80000;0,32667;75,08817;0,00077
10,00000;0,33325;76,31961;0,00077
10,20000;0,34000;75,43286;0,00078
10,40000;0,34672;77,53852;0,00078
10,60000;0,35328;78,33127;0,00079
10,80000;0,36003;77,98346;0,00080
11,00000;0,36669;79,33710;0,00080
11,20000;0,37333;80,23640;0,00081
11,40000;0,38006;81,93784;0,00082
11,60000;0,38672;83,68629;0,00083
11,80000;0,39336;86,09904;0,00085
12,00000;0,39997;87,90701;0,00087
12,20000;0,40667;89,58654;0,00088
12,40000;0,41333;92,42855;0,00090
12,60000;0,41991;96,14479;0,00093
12,80000;0,42664;98,68913;0,00096
13,00000;0,43333;103,54908;0,00099
13,20000;0,44000;106,84858;0,00102
13,40000;0,44667;110,64629;0,00105
13,60000;0,45336;114,99235;0,00108
13,80000;0,46003;118,45165;0,00112
14,00000;0,46661;121,94855;0,00115
14,20000;0,47333;125,74940;0,00119
14,40000;0,48003;129,84165;0,00122
14,60000;0,48664;136,03017;0,00126
14,80000;0,49336;138,47111;0,00130
15,00000;0,50006;142,97697;0,00133
15,20000;0,50667;145,74066;0,00137
15,40000;0,51330;150,52853;0,00140
15,60000;0,52003;155,40414;0,00144
15,80000;0,52669;158,33389;0,00148
16,00000;0,53328;162,44808;0,00151
16,20000;0,54003;166,93828;0,00155
16,40000;0,54669;170,60752;0,00159
16,60000;0,55328;175,36093;0,00162
16,80000;0,56000;178,42855;0,00166
17,00000;0,56669;182,56780;0,00170
17,20000;0,57330;186,78226;0,00174
17,40000;0,58000;190,93718;0,00178
17,60000;0,58672;195,35217;0,00181
17,80000;0,59336;198,51380;0,00185
18,00000;0,59997;202,21125;0,00189
18,20000;0,60667;206,99285;0,00193
18,40000;0,61333;211,42352;0,00197
18,60000;0,61994;216,20512;0,00201
18,80000;0,62669;219,65504;0,00205
19,00000;0,63336;223,39635;0,00209
19,20000;0,63997;227,35386;0,00213
19,40000;0,64667;231,51818;0,00217
19,60000;0,65339;235,40675;0,00222
19,80000;0,66003;239,82488;0,00225
20,00000;0,66664;243,87641;0,00229
20,20000;0,67336;247,66158;0,00234
20,40000;0,68003;252,51526;0,00238
20,60000;0,68661;257,31567;0,00242
20,80000;0,69330;260,18589;0,00246
21,00000;0,70003;263,98359;0,00250
21,20000;0,70667;268,09466;0,00254
21,40000;0,71333;273,10187;0,00258
21,60000;0,72006;276,46404;0,00262
21,80000;0,72669;279,96721;0,00266
22,00000;0,73325;283,83699;0,00270
22,20000;0,74000;287,94489;0,00274
22,40000;0,74672;291,90555;0,00279
22,60000;0,75330;296,39576;0,00283
22,80000;0,76003;298,72388;0,00287
23,00000;0,76669;303,41463;0,00291
23,20000;0,77330;306,95540;0,00295
23,40000;0,78000;311,19180;0,00299
23,60000;0,78669;315,63498;0,00303
23,80000;0,79336;319,15696;0,00307
24,00000;0,79997;322,69459;0,00311
24,20000;0,80675;325,45514;0,00315
24,40000;0,81339;329,81061;0,00319
24,60000;0,81994;334,16294;0,00323
24,80000;0,82664;336,85141;0,00327
25,00000;0,83333;341,01261;0,00331
25,20000;0,83994;345,38372;0,00335
25,40000;0,84667;348,93390;0,00339
25,60000;0,85339;352,20834;0,00343
25,80000;0,86003;355,42010;0,00347
26,00000;0,86661;359,50295;0,00351
26,20000;0,87336;363,28498;0,00355
26,40000;0,88003;366,64088;0,00359
26,60000;0,88661;370,96816;0,00363
26,80000;0,89333;374,74078;0,00367
27,00000;0,90006;377,37601;0,00370
27,20000;0,90667;380,68176;0,00374
27,40000;0,91330;384,83669;0,00378
27,60000;0,92003;388,47772;0,00382
27,80000;0,92664;391,99968;0,00386
28,00000;0,93325;396,11389;0,00390
28,20000;0,94000;398,49840;0,00394
28,40000;0,94675;402,72856;0,00398
28,60000;0,95333;406,59206;0,00402
28,80000;0,96003;408,71650;0,00406
29,00000;0,96669;412,95290;0,00410
29,20000;0,97330;415,96415;0,00413
29,40000;0,97997;419,70857;0,00417
29,60000;0,98669;423,19293;0,00421
29,80000;0,99336;426,00050;0,00425
30,00000;0,99997;429,48173;0,00429
30,20000;1,00672;433,41420;0,00433
30,40000;1,01336;435,63577;0,00436
30,60000;1,01991;440,47376;0,00440
30,80000;1,02664;442,76747;0,00444
31,00000;1,03333;446,09201;0,00448
31,20000;1,03994;450,00878;0,00451
31,40000;1,04667;453,66236;0,00455
31,60000;1,05339;456,42918;0,00459
31,80000;1,06006;460,01696;0,00463
32,00000;1,06661;463,17857;0,00467
32,20000;1,07333;466,50004;0,00470
32,40000;1,08003;469,42350;0,00474
32,60000;1,08664;473,23373;0,00478
32,80000;1,09342;476,47683;0,00482
33,00000;1,10008;480,52524;0,00486
33,20000;1,10667;483,18235;0,00490
33,40000;1,11328;486,25940;0,00493
33,60000;1,11997;489,28629;0,00497
33,80000;1,12664;492,58890;0,00501
34,00000;1,13325;495,97928;0,00504
34,20000;1,14000;498,95602;0,00509
34,40000;1,14675;502,23358;0,00512
34,60000;1,15333;505,89032;0,00516
34,80000;1,16000;508,54119;0,00520
35,00000;1,16667;511,90024;0,00524
35,20000;1,17330;514,75791;0,00527
35,40000;1,17997;518,34881;0,00531
35,60000;1,18669;521,86139;0,00535
35,80000;1,19339;524,73787;0,00539
36,00000;1,20000;527,92458;0,00543
36,20000;1,20672;531,28358;0,00546
36,40000;1,21333;535,11891;0,00550
36,60000;1,21991;537,67576;0,00554
36,80000;1,22664;540,79667;0,00558
37,00000;1,23333;544,24657;0,00562
37,20000;1,24000;547,35178;0,00565
37,40000;1,24669;551,21845;0,00569
37,60000;1,25336;553,85050;0,00573
37,80000;1,26003;556,96513;0,00577
38,00000;1,26658;560,72841;0,00581
38,20000;1,27330;563,91507;0,00584
38,40000;1,28003;566,41558;0,00588
38,60000;1,28664;570,29161;0,00592
38,80000;1,29339;573,55976;0,00596
39,00000;1,30008;576,95014;0,00600
39,20000;1,30664;579,32525;0,00604
39,40000;1,31330;582,97571;0,00607
39,60000;1,32000;586,56349;0,00611
39,80000;1,32664;588,92923;0,00615
40,00000;1,33325;592,01252;0,00619
40,20000;1,34003;595,97003;0,00622
40,40000;1,34672;598,39846;0,00626
40,60000;1,35330;601,84519;0,00630
40,80000;1,36000;605,07264;0,00634
41,00000;1,36667;608,60398;0,00638
41,20000;1,37330;611,52750;0,00642
41,40000;1,38003;614,11881;0,00645
41,60000;1,38675;617,87581;0,00650
41,80000;1,39336;621,58890;0,00654
42,00000;1,39994;624,97617;0,00658
42,20000;1,40667;628,10644;0,00662
42,40000;1,41330;632,04202;0,00666
42,60000;1,41991;634,80572;0,00670
42,80000;1,42666;637,97361;0,00674
43,00000;1,43336;641,05061;0,00678
43,20000;1,44000;644,55378;0,00682
43,40000;1,44667;647,74989;0,00686
43,60000;1,45339;651,25930;0,00690
43,80000;1,46003;653,74100;0,00694
44,00000;1,46658;658,01186;0,00697
44,20000;1,47333;660,17080;0,00701
44,40000;1,48006;662,70572;0,00705
44,60000;1,48666;665,82975;0,00709
44,80000;1,49339;668,08583;0,00712
45,00000;1,50003;670,90592;0,00715
45,20000;1,50664;673,20582;0,00719
45,40000;1,51330;675,32402;0,00722
45,60000;1,52003;678,63292;0,00726
45,80000;1,52669;680,31247;0,00729
46,00000;1,53327;683,43333;0,00733
46,20000;1,54003;686,12495;0,00736
46,40000;1,54669;688,66615;0,00740
46,60000;1,55327;691,24810;0,00743
46,80000;1,56000;693,78302;0,00747
47,00000;1,56669;696,29294;0,00750
47,20000;1,57330;698,88113;0,00754
47,40000;1,58003;701,56646;0,00757
47,60000;1,58672;703,96042;0,00761
47,80000;1,59336;705,45818;0,00764
48,00000;1,59997;709,78231;0,00768
48,20000;1,60669;711,67802;0,00771
48,40000;1,61333;714,25997;0,00775
48,60000;1,61991;717,37459;0,00778
48,80000;1,62664;720,18844;0,00782
49,00000;1,63336;723,49734;0,00785
49,20000;1,63997;724,88855;0,00789
49,40000;1,64666;727,83083;0,00792
49,60000;1,65339;730,06186;0,00796
49,80000;1,66006;732,78793;0,00800
50,00000;1,66664;735,83676;0,00803
50,20000;1,67339;737,30317;0,00807
50,40000;1,68006;740,85025;0,00810
50,60000;1,68661;742,84310;0,00814
50,80000;1,69330;745,54412;0,00818
51,00000;1,70003;748,18558;0,00821
51,20000;1,70664;750,59831;0,00825
51,40000;1,71330;753,27428;0,00828
51,60000;1,72003;756,50797;0,00832
51,80000;1,72669;758,72014;0,00835
52,00000;1,73327;761,79719;0,00839
52,20000;1,74000;763,83078;0,00842
52,40000;1,74672;766,90465;0,00846
52,60000;1,75330;769,53359;0,00849
52,80000;1,76000;771,78339;0,00853
53,00000;1,76669;774,67244;0,00857
53,20000;1,77330;776,57755;0,00860
53,40000;1,78000;779,40389;0,00864
53,60000;1,78672;782,39944;0,00867
53,80000;1,79339;784,42367;0,00871
54,00000;1,80000;788,01457;0,00874
54,20000;1,80672;790,12020;0,00878
54,40000;1,81339;792,65516;0,00881
54,60000;1,81994;795,52224;0,00885
54,80000;1,82664;797,68430;0,00888
55,00000;1,83330;800,36651;0,00892
55,20000;1,83994;802,83880;0,00895
55,40000;1,84666;804,92245;0,00899
55,60000;1,85339;808,17183;0,00903
55,80000;1,86005;810,20230;0,00906
56,00000;1,86664;813,31069;0,00910
56,20000;1,87336;815,03717;0,00913
56,40000;1,88000;817,60036;0,00917
56,60000;1,88661;820,65230;0,00920
56,80000;1,89333;823,07439;0,00924
57,00000;1,90003;825,86948;0,00927
57,20000;1,90666;828,30722;0,00931
57,40000;1,91333;830,05568;0,00934
57,60000;1,92000;834,20752;0,00938
57,80000;1,92666;835,53921;0,00942
58,00000;1,93325;838,77919;0,00945
58,20000;1,94000;841,14494;0,00949
58,40000;1,94675;843,42603;0,00952
58,60000;1,95336;846,02991;0,00956
58,80000;1,96005;848,00087;0,00959
59,00000;1,96669;850,82715;0,00963
59,20000;1,97327;853,19290;0,00966
59,40000;1,97994;855,49597;0,00970
59,60000;1,98666;859,16836;0,00973
59,80000;1,99336;861,21764;0,00977
60,00000;2,00000;863,51754;0,00980
60,20000;2,00669;866,32827;0,00984
60,40000;2,01333;868,23646;0,00988
60,60000;2,01991;871,06284;0,00991
60,80000;2,02664;873,67930;0,00995
61,00000;2,03336;875,11120;0,00999
61,20000;2,03997;878,44515;0,01002
61,40000;2,04669;880,21243;0,01006
61,60000;2,05342;882,60639;0,01009
61,80000;2,06005;885,56437;0,01013
62,00000;2,06658;888,40006;0,01016
62,20000;2,07333;890,35537;0,01020
62,40000;2,08003;893,20680;0,01024
62,60000;2,08661;896,19607;0,01027
62,80000;2,09339;897,94761;0,01031
63,00000;2,10008;900,27265;0,01034
63,20000;2,10666;902,75118;0,01038
63,40000;2,11330;904,84433;0,01041
63,60000;2,11997;908,10303;0,01045
63,80000;2,12664;910,60977;0,01049
64,00000;2,13322;912,53370;0,01052
64,20000;2,14000;914,25395;0,01056
64,40000;2,14675;918,08615;0,01059
64,60000;2,15336;919,57767;0,01063
64,80000;2,16003;922,62020;0,01066
65,00000;2,16669;924,16499;0,01070
65,20000;2,17330;927,19188;0,01074
65,40000;2,17997;930,08718;0,01077
65,60000;2,18666;931,53799;0,01081
65,80000;2,19336;933,97889;0,01084
66,00000;2,19997;936,97757;0,01088
66,20000;2,20669;939,63789;0,01092
66,40000;2,21333;941,61192;0,01095
66,60000;2,21991;943,69566;0,01099
66,80000;2,22664;946,63482;0,01102
67,00000;2,23336;948,93472;0,01106
67,20000;2,24003;950,92133;0,01110
67,40000;2,24672;954,31171;0,01113
67,60000;2,25339;957,00016;0,01117
67,80000;2,26000;958,11877;0,01120
68,00000;2,26658;960,50650;0,01124
68,20000;2,27333;963,30773;0,01128
68,40000;2,28003;965,45098;0,01131
68,60000;2,28664;967,56294;0,01135
68,80000;2,29336;970,53340;0,01139
69,00000;2,30005;972,46049;0,01142
69,20000;2,30664;975,54689;0,01146
69,40000;2,31330;978,24791;0,01149
69,60000;2,31997;980,56979;0,01153
69,80000;2,32666;982,30569;0,01157
70,00000;2,33325;985,40150;0,01160
70,20000;2,34005;986,82102;0,01164
70,40000;2,34675;989,39976;0,01168
70,60000;2,35327;992,25435;0,01171
70,80000;2,36000;994,20957;0,01175
71,00000;2,36666;996,80722;0,01179
71,20000;2,37330;998,92858;0,01182
71,40000;2,38003;1001,86458;0,01186
71,60000;2,38672;1004,71908;0,01190
71,80000;2,39339;1006,56468;0,01194
72,00000;2,39997;1009,45998;0,01197
72,20000;2,40666;1011,30558;0,01201
72,40000;2,41330;1013,81857;0,01205
72,60000;2,41991;1016,62297;0,01208
72,80000;2,42664;1019,07644;0,01212
73,00000;2,43336;1021,14454;0,01215
73,20000;2,44000;1023,76090;0,01219
73,40000;2,44666;1025,65037;0,01223
73,60000;2,45339;1028,16336;0,01227
73,80000;2,46003;1029,84291;0,01230
74,00000;2,46661;1032,80712;0,01234
74,20000;2,47333;1034,56182;0,01237
74,40000;2,48003;1037,28790;0,01241
74,60000;2,48664;1040,18953;0,01245
74,80000;2,49333;1042,46438;0,01249
75,00000;2,50003;1045,07767;0,01253
75,20000;2,50666;1047,29300;0,01256
75,40000;2,51330;1049,26080;0,01260
75,60000;2,52005;1051,46980;0,01264
75,80000;2,52672;1053,74465;0,01267
76,00000;2,53330;1056,33605;0,01271
76,20000;2,54003;1058,98064;0,01275
76,40000;2,54669;1061,45293;0,01278
76,60000;2,55327;1064,03800;0,01282
76,80000;2,56000;1066,14055;0,01286
77,00000;2,56666;1068,51878;0,01290
77,20000;2,57330;1070,54608;0,01293
77,40000;2,58000;1073,71090;0,01297
77,60000;2,58672;1075,50630;0,01301
77,80000;2,59336;1077,83135;0,01305
78,00000;2,59997;1080,32553;0,01309
78,20000;2,60669;1082,24005;0,01312
78,40000;2,61333;1084,77185;0,01316
78,60000;2,61991;1087,22225;0,01320
78,80000;2,62666;1089,64751;0,01324
79,00000;2,63336;1091,82522;0,01327
79,20000;2,63997;1093,86509;0,01331
79,40000;2,64669;1095,64168;0,01335
79,60000;2,65339;1098,61223;0,01339
79,80000;2,66003;1100,69597;0,01342
80,00000;2,66661;1103,05538;0,01346
80,20000;2,67336;1105,56530;0,01350
80,40000;2,68003;1108,25058;0,01354
80,60000;2,68658;1110,28422;0,01358
80,80000;2,69330;1112,80037;0,01362
81,00000;2,70003;1114,57072;0,01365
81,20000;2,70666;1117,25293;0,01369
81,40000;2,71333;1119,15180;0,01373
81,60000;2,72003;1121,77767;0,01377
81,80000;2,72669;1123,62318;0,01381
82,00000;2,73324;1126,26785;0,01384
82,20000;2,74000;1127,57757;0,01388
82,40000;2,74672;1130,88023;0,01392
82,60000;2,75330;1133,23973;0,01396
82,80000;2,76003;1134,80641;0,01400
83,00000;2,76669;1137,34137;0,01404
83,20000;2,77333;1139,97655;0,01407
83,40000;2,78000;1142,36111;0,01411
83,60000;2,78669;1144,69547;0,01415
83,80000;2,79336;1146,65078;0,01419
84,00000;2,79997;1148,74700;0,01423
84,20000;2,80672;1151,31019;0,01427
84,40000;2,81342;1154,09577;0,01431
84,60000;2,81997;1155,94454;0,01434
84,80000;2,82663;1158,39792;0,01438
85,00000;2,83330;1159,72031;0,01442
85,20000;2,83994;1162,50589;0,01446
85,40000;2,84666;1165,21316;0,01450
85,60000;2,85336;1167,02430;0,01454
85,80000;2,86003;1168,74455;0,01458
86,00000;2,86663;1171,19802;0,01462
86,20000;2,87336;1173,83013;0,01466
86,40000;2,88003;1176,45590;0,01470
86,60000;2,88661;1178,37358;0,01473
86,80000;2,89333;1179,97788;0,01477
87,00000;2,90005;1183,25539;0,01481
87,20000;2,90666;1185,87501;0,01485
87,40000;2,91330;1187,55763;0,01489
87,60000;2,92000;1190,28054;0,01493
87,80000;2,92666;1192,17942;0,01497
88,00000;2,93324;1193,97799;0,01501
88,20000;2,94000;1196,49414;0,01504
88,40000;2,94675;1199,22021;0,01509
88,60000;2,95333;1200,76193;0,01513
88,80000;2,96003;1203,36888;0,01517
89,00000;2,96669;1205,44322;0,01521
89,20000;2,97327;1207,64915;0,01524
89,40000;2,97994;1209,72032;0,01528
89,60000;2,98669;1212,20825;0,01532
89,80000;2,99339;1214,42992;0,01536
90,00000;3,00000;1217,65109;0,01540
90,20000;3,00675;1218,98279;0,01544
90,40000;3,01339;1221,34220;0,01548
90,60000;3,01991;1223,48862;0,01552
90,80000;3,02663;1225,72901;0,01556
91,00000;3,03330;1228,02891;0,01560
91,20000;3,03994;1229,65211;0,01564
91,40000;3,04666;1232,47840;0,01568
91,60000;3,05339;1234,37727;0,01572
91,80000;3,06005;1236,37635;0,01576
92,00000;3,06661;1238,86121;0,01580
92,20000;3,07330;1240,99823;0,01584
92,40000;3,08002;1242,76858;0,01588
92,60000;3,08663;1245,31295;0,01592
92,80000;3,09342;1247,62850;0,01596
93,00000;3,10011;1249,96603;0,01600
93,20000;3,10666;1252,05610;0,01604
93,40000;3,11330;1254,16489;0,01608
93,60000;3,11997;1257,08524;0,01612
93,80000;3,12663;1258,90262;0,01616
94,00000;3,13324;1261,52216;0,01620
94,20000;3,14000;1263,30508;0,01624
94,40000;3,14675;1265,28228;0,01628
94,60000;3,15333;1267,85170;0,01632
94,80000;3,16000;1269,75365;0,01636
95,00000;3,16666;1272,37635;0,01640
95,20000;3,17330;1273,90232;0,01644
95,40000;3,17994;1276,17400;0,01648
95,60000;3,18666;1278,15437;0,01652
95,80000;3,19336;1280,39792;0,01656
96,00000;3,20000;1282,77615;0,01660
96,20000;3,20672;1284,83484;0,01665
96,40000;3,21333;1286,80579;0,01669
96,60000;3,21991;1289,24353;0,01672
96,80000;3,22663;1291,36173;0,01677
97,00000;3,23336;1293,63975;0,01681
97,20000;3,24002;1295,42584;0,01685
97,40000;3,24669;1298,18013;0,01689
97,60000;3,25339;1300,44864;0,01693
97,80000;3,26002;1302,09057;0,01697
98,00000;3,26658;1303,73882;0,01701
98,20000;3,27330;1306,62471;0,01706
98,40000;3,28000;1308,21643;0,01710
98,60000;3,28666;1311,02083;0,01714
98,80000;3,29339;1313,20171;0,01718
99,00000;3,30008;1314,64619;0,01722
99,20000;3,30663;1316,78954;0,01726
99,40000;3,31327;1318,60692;0,01730
99,60000;3,31997;1321,53668;0,01734
99,80000;3,32663;1323,03126;0,01738
100,00000;3,33324;1325,15570;0,01742
100,20000;3,34000;1326,57206;0,01746
100,40000;3,34675;1329,31378;0,01750
100,60000;3,35333;1331,05908;0,01754
100,80000;3,36000;1332,97676;0,01758
101,00000;3,36669;1334,80979;0,01762
101,20000;3,37330;1337,24455;0,01766
101,40000;3,38002;1339,12768;0,01771
101,60000;3,38675;1341,80365;0,01775
101,80000;3,39339;1343,37032;0,01779
102,00000;3,39994;1345,42901;0,01783
102,20000;3,40666;1347,48770;0,01787
102,40000;3,41330;1349,54322;0,01791
102,60000;3,41991;1351,92145;0,01795
102,80000;3,42663;1353,35661;0,01800
103,00000;3,43336;1355,38699;0,01804
103,20000;3,44000;1357,55222;0,01808
103,40000;3,44666;1359,32257;0,01812
103,60000;3,45336;1362,22728;0,01816
103,80000;3,46002;1363,85355;0,01821
104,00000;3,46661;1365,73985;0,01825
104,20000;3,47336;1368,20273;0,01829
104,40000;3,48008;1370,25518;0,01833
104,60000;3,48666;1372,81204;0,01837
104,80000;3,49339;1374,01838;0,01842
105,00000;3,50002;1376,54077;0,01846
105,20000;3,50663;1378,63075;0,01850
105,40001;3,51327;1379,27942;0,01854
105,60001;3,52002;1382,66347;0,01859
105,80001;3,52669;1384,45580;0,01863
106,00001;3,53327;1386,03197;0,01867
106,20001;3,54002;1387,23515;0,01871
106,40001;3,54669;1390,29650;0,01875
106,60001;3,55327;1392,51817;0,01880
106,80001;3,56000;1394,86510;0,01884
107,00001;3,56669;1396,28453;0,01888
107,20001;3,57333;1398,95733;0,01893
107,40001;3,58002;1400,57104;0,01897
107,60001;3,58672;1403,49139;0,01901
107,80001;3,59336;1404,08045;0,01906
108,00001;3,60000;1406,70314;0,01910
108,20001;3,60669;1408,67718;0,01914
108,40001;3,61333;1410,67002;0,01919
108,60001;3,61991;1413,57165;0,01923
108,80001;3,62663;1415,16654;0,01927
109,00001;3,63336;1416,58280;0,01931
109,20001;3,63994;1419,07390;0,01936
109,40001;3,64669;1420,96020;0,01940
109,60001;3,65339;1422,82778;0,01944
109,80001;3,66005;1424,62011;0,01949
110,00001;3,66663;1426,95447;0,01953
110,20001;3,67339;1428,89721;0,01958
110,40001;3,68005;1430,49527;0,01962
110,60001;3,68661;1432,92677;0,01966
110,80001;3,69330;1435,28935;0,01971
111,00001;3,70002;1436,81541;0,01975
111,20001;3,70663;1438,48862;0,01980
111,40001;3,71330;1440,33730;0,01985
111,60001;3,72002;1442,85662;0,01989
111,80001;3,72669;1444,86511;0,01994
112,00001;3,73327;1446,93945;0,01998
112,20001;3,74000;1448,26490;0,02002
112,40001;3,74672;1450,81552;0,02007
112,60001;3,75330;1453,19374;0,02011
112,80001;3,76000;1454,58812;0,02016
113,00001;3,76669;1456,81920;0,02020
113,20001;3,77333;1458,27616;0,02025
113,40001;3,78000;1459,92441;0,02029
113,60001;3,78669;1462,49384;0,02034
113,80001;3,79339;1464,84077;0,02038
114,00001;3,80000;1466,54844;0,02043
114,20001;3,80672;1468,39404;0,02047
114,40001;3,81339;1469,95131;0,02052
114,60001;3,81991;1472,15417;0,02056
114,80001;3,82663;1474,47912;0,02061
115,00001;3,83333;1476,65059;0,02065
115,20001;3,83994;1478,10765;0,02070
115,40001;3,84666;1480,00335;0,02074
115,60001;3,85341;1481,82707;0,02079
115,80001;3,86005;1484,24292;0,02083
116,00001;3,86663;1485,73127;0,02088
116,20001;3,87336;1487,63014;0,02093
116,40001;3,88000;1490,20897;0,02097
116,60001;3,88661;1491,33699;0,02101
116,80001;3,89333;1494,20723;0,02106
117,00001;3,90005;1494,24169;0,02111
117,20001;3,90666;1497,66337;0,02115
117,40001;3,91333;1499,11102;0,02120
117,60001;3,92000;1501,10386;0,02124
117,80001;3,92666;1503,07165;0,02129
118,00001;3,93324;1504,66654;0,02133
118,20001;3,94000;1507,04170;0,02138
118,40001;3,94678;1508,42350;0,02143
118,60001;3,95336;1510,28791;0,02147
118,80001;3,96005;1511,98311;0,02152
119,00001;3,96669;1513,84119;0,02156
119,20001;3,97330;1516,21010;0,02161
119,40001;3,97997;1518,28127;0,02165
119,60001;3,98666;1520,95407;0,02170
119,80001;3,99336;1522,42994;0,02175
120,00001;3,99994;1524,16900;0,02179
120,20001;4,00669;1525,54149;0,02184
120,40001;4,01339;1527,17084;0,02189
120,60001;4,01991;1529,11358;0,02193
120,80001;4,02663;1531,51378;0,02198
121,00001;4,03333;1532,61358;0,02203
121,20001;4,03994;1534,25233;0,02207
121,40001;4,04669;1536,19200;0,02212
121,60001;4,05341;1538,52953;0,02217
121,80001;4,06008;1540,34691;0,02221
122,00001;4,06660;1542,57165;0,02226
122,20001;4,07330;1543,80929;0,02231
122,40001;4,08002;1545,84292;0,02236
122,60001;4,08663;1547,76368;0,02241
122,80001;4,09341;1548,75703;0,02245
123,00001;4,10008;1550,77493;0,02250
123,20001;4,10666;1553,38505;0,02255
123,40001;4,11327;1553,87390;0,02260
123,60001;4,11997;1556,70019;0,02264
123,80001;4,12663;1558,76204;0,02269
124,00001;4,13324;1560,13444;0,02274
124,20001;4,14000;1561,48812;0,02279
124,40001;4,14678;1563,34303;0,02283
124,60001;4,15333;1565,22617;0,02288
124,80001;4,15999;1567,79252;0,02293
125,00001;4,16666;1568,58210;0,02298
125,20001;4,17330;1570,75990;0,02303
125,40001;4,17997;1572,32657;0,02308
125,60001;4,18669;1574,57646;0,02312
125,80001;4,19336;1575,95500;0,02317
126,00001;4,20000;1577,50919;0,02322
126,20001;4,20672;1579,11982;0,02327
126,40001;4,21336;1581,47924;0,02332
126,60001;4,21991;1582,99897;0,02336
126,80001;4,22666;1584,62524;0,02341
127,00001;4,23336;1586,41133;0,02346
127,20001;4,24005;1588,51389;0,02351
127,40001;4,24672;1590,40019;0,02356
127,60001;4,25341;1592,17678;0,02361
127,80001;4,26000;1593,91910;0,02365
128,00001;4,26658;1595,38854;0,02370
128,20001;4,27330;1597,25919;0,02375
128,40001;4,28002;1599,05776;0,02380
128,60001;4,28660;1600,83771;0,02385
128,80001;4,29336;1602,26952;0,02390
129,00001;4,30005;1604,40654;0,02394
129,20001;4,30663;1605,60980;0,02399
129,40001;4,31330;1607,55571;0,02404
129,60001;4,31997;1609,33230;0,02409
129,80001;4,32666;1610,27554;0,02414
130,00001;4,33327;1612,25274;0,02418
130,20001;4,33999;1614,74068;0,02424
130,40001;4,34678;1615,88751;0,02429
130,60001;4,35330;1617,93046;0,02434
130,80001;4,35997;1619,10541;0,02439
131,00001;4,36666;1620,78496;0,02444
131,20001;4,37327;1622,82791;0,02449
131,40001;4,38002;1624,61717;0,02454
131,60001;4,38672;1626,46286;0,02459
131,80001;4,39336;1628,02003;0,02463
132,00001;4,39994;1629,65581;0,02468
132,20001;4,40666;1631,34467;0,02473
132,40001;4,41330;1632,78915;0,02478
132,60001;4,41991;1634,14907;0,02483
132,80001;4,42663;1635,91318;0,02488
133,00001;4,43336;1637,40478;0,02493
133,20001;4,43999;1639,18454;0,02498
133,40001;4,44669;1640,66982;0,02503
133,60001;4,45339;1642,31155;0,02508
133,80001;4,46002;1643,55561;0,02514
134,00001;4,46660;1645,50468;0,02518
134,20001;4,47333;1647,47238;0,02523
134,40001;4,48002;1648,73507;0,02529
134,60001;4,48663;1650,34253;0,02533
134,80001;4,49336;1652,48904;0,02539
135,00001;4,50002;1653,63587;0,02544
135,20001;4,50663;1655,83231;0,02549
135,40001;4,51333;1656,44027;0,02554
135,60001;4,52005;1659,07852;0,02559
135,80001;4,52669;1660,08435;0,02564
136,00001;4,53327;1661,61973;0,02569
136,20001;4,54002;1663,34007;0,02574
136,40001;4,54669;1665,23270;0,02579
136,60001;4,55327;1666,59877;0,02584
136,80001;4,55999;1667,58895;0,02589
137,00001;4,56669;1669,07106;0,02595
137,20001;4,57330;1671,77208;0,02600
137,40001;4,58002;1672,33925;0,02605
137,60001;4,58672;1674,99017;0,02610
137,80001;4,59336;1676,02096;0,02615
138,00001;4,59997;1677,74130;0,02620
138,20001;4,60669;1678,91942;0,02626
138,40001;4,61336;1680,91860;0,02631
138,60001;4,61994;1682,04661;0,02636
138,80001;4,62666;1683,85766;0,02641
139,00001;4,63336;1685,22708;0,02646
139,20001;4,63997;1687,38291;0,02651
139,40001;4,64669;1687,75562;0,02657
139,60001;4,65339;1689,01216;0,02662
139,80001;4,66005;1690,87667;0,02667
140,00001;4,66663;1692,07044;0,02672
140,20001;4,67336;1693,99437;0,02677
140,40001;4,68005;1696,12821;0,02682
140,60001;4,68663;1696,86452;0,02688
140,80001;4,69333;1698,67892;0,02693
141,00001;4,70005;1699,98556;0,02698
141,20001;4,70666;1701,42688;0,02703
141,40001;4,71333;1702,86205;0,02709
141,60001;4,72002;1705,28088;0,02714
141,80001;4,72669;1706,16768;0,02719
142,00001;4,73324;1707,45552;0,02724
142,20001;4,73999;1708,79662;0,02730
142,40001;4,74672;1710,07514;0,02735
142,60001;4,75327;1711,46635;0,02740
142,80001;4,75999;1713,10510;0,02745
143,00001;4,76669;1713,93547;0,02751
143,20001;4,77330;1716,22913;0,02756
143,40001;4,77999;1717,02821;0,02761
143,60001;4,78669;1718,85807;0,02767
143,80001;4,79338;1719,73240;0,02772
144,00001;4,79997;1721,73455;0,02777
144,20001;4,80675;1723,32004;0,02783
144,40001;4,81341;1724,24447;0,02788
144,60001;4,81997;1726,53180;0,02794
144,80001;4,82663;1727,92301;0,02799
145,00001;4,83330;1729,24548;0,02804
145,20001;4,83994;1730,24815;0,02810
145,40001;4,84666;1731,54529;0,02815
145,60001;4,85338;1732,80817;0,02821
145,80001;4,86002;1734,57842;0,02826
146,00001;4,86660;1735,65950;0,02831
146,20001;4,87336;1736,71860;0,02837
146,40001;4,88002;1738,81482;0,02842
146,60001;4,88660;1739,90224;0,02847
146,80001;4,89333;1741,62239;0,02853
147,00001;4,90005;1743,11083;0,02858
147,20001;4,90666;1745,05673;0,02864
147,40001;4,91333;1745,64887;0,02870
147,60001;4,92002;1747,12464;0,02875
147,80001;4,92666;1747,99897;0,02880
148,00001;4,93327;1749,76941;0,02886
148,20001;4,94002;1751,73711;0,02891
148,40001;4,94677;1752,49539;0,02897
148,60001;4,95336;1754,26267;0,02902
148,80001;4,96005;1755,38138;0,02908
149,00001;4,96669;1756,34325;0,02913
149,20001;4,97327;1758,49274;0,02919
149,40001;4,97994;1758,87812;0,02924
149,60001;4,98669;1760,65490;0,02930
149,80001;4,99336;1761,62943;0,02935
150,00001;5,00002;1763,47494;0,02941
150,20001;5,00672;1764,73465;0,02947
150,40001;5,01336;1765,42401;0,02952
150,60001;5,01991;1767,71451;0,02958
150,80001;5,02663;1768,60746;0,02963
151,00001;5,03333;1770,31830;0,02969
151,20001;5,03994;1771,74713;0,02974
151,40001;5,04666;1771,74099;0,02980
151,60001;5,05341;1773,95307;0,02985
151,80001;5,06008;1774,71135;0,02991
152,00001;5,06660;1775,41021;0,02996
152,20001;5,07333;1777,78844;0,03002
152,40001;5,08002;1778,89131;0,03008
152,60001;5,08663;1780,26389;0,03014
152,80001;5,09341;1781,36677;0,03020
153,00001;5,10008;1782,37259;0,03025
153,20001;5,10666;1785,17383;0,03031
153,40001;5,11330;1785,04232;0,03036
153,60001;5,11997;1786,95675;0,03042
153,80001;5,12660;1787,95960;0,03048
154,00001;5,13324;1789,28506;0,03053
154,20001;5,13999;1790,70756;0,03059
154,40001;5,14677;1792,13323;0,03065
154,60001;5,15333;1792,69407;0,03070
154,80001;5,15999;1794,21697;0,03076
155,00001;5,16666;1795,29171;0,03082
155,20001;5,17327;1796,76767;0,03087
155,40001;5,17997;1797,52894;0,03093
155,60001;5,18669;1799,61268;0,03099
155,80001;5,19338;1800,17054;0,03105
156,00001;5,20002;1801,28291;0,03111
156,20001;5,20672;1802,68344;0,03116
156,40001;5,21333;1804,55111;0,03122
156,60001;5,21991;1805,57258;0,03128
156,80001;5,22663;1806,68496;0,03134
157,00001;5,23336;1808,32986;0,03140
157,20001;5,24002;1809,47371;0,03145
157,40001;5,24669;1810,44191;0,03151
157,60001;5,25338;1811,46339;0,03157
157,80001;5,25999;1813,18987;0,03163
158,00001;5,26655;1813,43425;0,03169
158,20001;5,27333;1815,35501;0,03175
158,40001;5,28002;1816,11329;0,03180
158,60001;5,28666;1817,85561;0,03186
158,80001;5,29338;1818,81431;0,03192
159,00001;5,30008;1819,75123;0,03198
159,20001;5,30663;1821,70030;0,03204
159,40001;5,31333;1822,52117;0,03210
159,60001;5,31999;1824,26646;0,03216
159,80001;5,32663;1824,49520;0,03222
160,00001;5,33324;1825,32556;0,03227
160,20001;5,33999;1826,83282;0,03233
160,40001;5,34675;1828,54999;0,03239
160,60001;5,35330;1829,31144;0,03245
160,80001;5,35999;1831,35439;0,03251
161,00001;5,36669;1831,70848;0,03257
161,20001;5,37330;1832,75491;0,03263
161,40001;5,38005;1833,44427;0,03269
161,60001;5,38675;1835,70348;0,03275
161,80001;5,39338;1836,68435;0,03281
162,00001;5,39994;1837,43313;0,03287
162,20001;5,40666;1838,00347;0,03293
162,40001;5,41333;1839,64223;0,03299
162,60001;5,41991;1839,74877;0,03304
162,80001;5,42666;1841,24969;0,03310
163,00001;5,43336;1841,48476;0,03316
163,20001;5,43999;1843,82536;0,03322
163,40001;5,44666;1844,48659;0,03328
163,60001;5,45336;1846,16297;0,03334
163,72201;5,45746;1539,81736;0,02572
163,73001;5,45771;1102,71070;0,01411