File: 02_Appendices/Appendix_C_Experimental_Data_and_Analysis Reports/C_1_Materials_Tests/C_1_1_Tensile_tests/C_1_1_2_Quanton Iron/Specimen_RawData_8.csv
Text Inputs : Specimen label;"1"
Dimension : Length;50,00000;mm
Dimension : Final length;100,00000;mm
Test : Rate 1;4,00000;mm/min
General : Unique Identifier;"{61C05103-8CE1-4D39-B6FB-7E66F3766F98}"

Time;Extension;Load;Strain 1
(sec);(mm);(N);(mm/mm)
0,00000;0,00000;-1,40961;-0,00005
0,50000;0,03177;15,06907;0,00011
1,00000;0,06652;40,72556;0,00039
1,50000;0,10006;62,84127;0,00065
2,00000;0,13333;84,80345;0,00090
2,50000;0,16669;103,58207;0,00113
3,00000;0,20000;117,75770;0,00133
3,50000;0,23336;118,47524;0,00139
4,00000;0,26667;120,09522;0,00144
4,50000;0,30006;121,11046;0,00148
5,00000;0,33333;121,63374;0,00151
5,50000;0,36669;121,85934;0,00153
6,00000;0,40006;121,94709;0,00155
6,50000;0,43333;122,26356;0,00157
7,00000;0,46667;124,63243;0,00159
7,50000;0,50006;124,89250;0,00161
8,00000;0,53336;129,00982;0,00166
8,50000;0,56667;137,92128;0,00174
9,00000;0,60003;152,73299;0,00189
9,50000;0,63336;164,55541;0,00203
10,00000;0,66667;179,34830;0,00220
10,50000;0,70003;195,54498;0,00239
11,00000;0,73333;212,27747;0,00260
11,50000;0,76667;229,00682;0,00281
12,00000;0,80003;245,78320;0,00302
12,50000;0,83339;262,33708;0,00323
13,00000;0,86667;277,28665;0,00345
13,50000;0,90003;293,65253;0,00366
14,00000;0,93333;310,12495;0,00387
14,50000;0,96675;325,87042;0,00409
15,00000;0,99997;342,42116;0,00431
15,50000;1,03336;356,92579;0,00453
16,00000;1,06667;371,79077;0,00474
16,50000;1,10006;388,18484;0,00496
17,00000;1,13330;402,69573;0,00518
17,50000;1,16672;417,76439;0,00540
18,00000;1,20000;432,28469;0,00561
18,50000;1,23336;446,59190;0,00583
19,00000;1,26667;460,66726;0,00604
19,50000;1,30003;474,48566;0,00625
20,00000;1,33333;488,97774;0,00646
20,50000;1,36669;501,80284;0,00668
21,00000;1,40003;514,59661;0,00688
21,50000;1,43336;528,63439;0,00709
22,00000;1,46667;541,28086;0,00729
22,50000;1,50006;554,45693;0,00750
23,00000;1,53336;566,91230;0,00770
23,50000;1,56666;579,47733;0,00790
24,00000;1,60003;591,10862;0,00810
24,50000;1,63339;603,17856;0,00830
25,00000;1,66666;613,64421;0,00848
25,50000;1,70003;625,36635;0,00868
26,00000;1,73336;636,98511;0,00887
26,50000;1,76666;649,03311;0,00907
27,00000;1,80000;660,09411;0,00926
27,50000;1,83339;670,97335;0,00945
28,00000;1,86666;681,65837;0,00963
28,50000;1,90000;692,44360;0,00981
29,00000;1,93336;702,83716;0,00999
29,50000;1,96672;713,14615;0,01018
30,00000;1,99997;723,32351;0,01035
30,50000;2,03336;733,11860;0,01053
31,00000;2,06666;743,98220;0,01072
31,50000;2,10005;754,31308;0,01090
32,00000;2,13333;763,63501;0,01108
32,50000;2,16669;773,41446;0,01126
33,00000;2,20000;783,39130;0,01144
33,50000;2,23336;792,99519;0,01162
34,00000;2,26666;803,92146;0,01180
34,50000;2,30005;813,53476;0,01198
35,00000;2,33333;823,05418;0,01216
35,50000;2,36666;832,59232;0,01234
36,00000;2,40005;841,97689;0,01252
36,50000;2,43336;851,82218;0,01270
37,00000;2,46664;860,87147;0,01288
37,50000;2,50005;870,37832;0,01307
38,00000;2,53336;879,97280;0,01325
38,50000;2,56666;889,46084;0,01343
39,00000;2,60000;898,65746;0,01361
39,50000;2,63336;908,28016;0,01379
40,00000;2,66666;917,49560;0,01397
40,50000;2,70005;926,76114;0,01416
41,00000;2,73333;936,28671;0,01434
41,50000;2,76666;944,60910;0,01453
42,00000;2,80003;954,08149;0,01471
42,50000;2,83339;963,50992;0,01490
43,00000;2,86666;972,42771;0,01508
43,50000;2,90005;982,26033;0,01527
44,00000;2,93333;990,86473;0,01546
44,50000;2,96672;999,97679;0,01565
45,00000;2,99997;1009,10757;0,01584
45,50000;3,03336;1018,58927;0,01603
46,00000;3,06669;1027,15297;0,01622
46,50000;3,10005;1036,64724;0,01642
47,00000;3,13333;1045,44591;0,01662
47,50000;3,16672;1054,73027;0,01681
48,00000;3,19997;1062,69857;0,01701
48,50000;3,23336;1072,42782;0,01721
49,00000;3,26669;1081,86882;0,01741
49,50000;3,30005;1089,41104;0,01761
50,00000;3,33333;1098,83631;0,01780
50,50000;3,36669;1108,38702;0,01801
51,00000;3,40002;1116,87863;0,01821
51,50000;3,43336;1125,53937;0,01841
52,00000;3,46666;1134,26913;0,01862
52,50000;3,50005;1143,16493;0,01882
53,00000;3,53336;1151,88211;0,01903
53,50000;3,56666;1160,57107;0,01924
54,00000;3,60000;1168,34203;0,01945
54,50000;3,63336;1177,86760;0,01966
55,00000;3,66669;1185,99571;0,01987
55,50000;3,70002;1194,27424;0,02009
56,00000;3,73336;1202,99766;0,02030
56,50000;3,76666;1211,18221;0,02051
57,00000;3,80000;1218,65226;0,02072
57,50000;3,83339;1226,41381;0,02094
58,00000;3,86666;1235,39418;0,02115
58,50000;3,90000;1243,23089;0,02137
59,00000;3,93336;1251,43416;0,02159
59,50000;3,96672;1259,18631;0,02181
60,00000;4,00000;1267,39899;0,02203
60,50000;4,03336;1275,10093;0,02225
61,00000;4,06666;1282,85931;0,02247
61,50000;4,10008;1290,27301;0,02270
62,00000;4,13333;1298,63610;0,02292
62,50000;4,16669;1306,19388;0,02315
63,00000;4,20000;1314,28447;0,02337
63,50000;4,23339;1320,76126;0,02360
64,00000;4,26666;1328,99582;0,02383
64,50000;4,30005;1335,33794;0,02406
65,00000;4,33333;1343,42210;0,02428
65,50000;4,36669;1350,43785;0,02452
66,00000;4,40005;1357,88294;0,02475
66,50000;4,43336;1364,61975;0,02499
67,00000;4,46666;1372,07415;0,02522
67,50000;4,50005;1377,57333;0,02546
68,00000;4,53336;1384,76770;0,02570
68,50000;4,56666;1392,54797;0,02593
69,00000;4,59999;1398,07845;0,02617
69,50000;4,63336;1404,60851;0,02641
70,00000;4,66666;1411,47077;0,02666
70,50000;4,70005;1416,87589;0,02690
71,00000;4,73333;1423,48744;0,02714
71,50000;4,76666;1429,56944;0,02739
72,00000;4,80002;1436,29378;0,02764
72,50000;4,83336;1442,51361;0,02789
73,00000;4,86666;1447,76832;0,02814
73,50000;4,90005;1452,86648;0,02839
74,00000;4,93333;1459,42783;0,02864
74,50000;4,96675;1465,16822;0,02890
75,00000;4,99999;1469,80574;0,02915
75,50000;5,03336;1475,29235;0,02941
76,00000;5,06669;1480,68815;0,02966
76,50000;5,10008;1485,11883;0,02992
77,00000;5,13333;1491,16004;0,03018
77,50000;5,16672;1495,83193;0,03044
78,00000;5,19999;1500,59788;0,03070
78,50000;5,23336;1505,55186;0,03097
79,00000;5,26669;1510,85984;0,03124
79,50000;5,30005;1514,82364;0,03150
80,00000;5,33333;1519,91863;0,03177
80,50000;5,36669;1524,68458;0,03205
81,00000;5,40002;1528,90217;0,03231
81,50000;5,43336;1533,09777;0,03259
82,00000;5,46666;1536,79214;0,03286
82,50000;5,50002;1540,53345;0,03313
83,00000;5,53338;1543,60104;0,03341
83,50000;5,56666;1548,19777;0,03369
84,00000;5,59999;1552,07068;0,03397
84,50000;5,63338;1555,72426;0,03425
85,00000;5,66666;1559,85728;0,03453
85,50000;5,70002;1562,11648;0,03482
86,00000;5,73336;1565,96433;0,03511
86,50000;5,76666;1569,07253;0,03539
87,00000;5,79999;1572,54767;0,03568
87,50000;5,83338;1574,89143;0,03597
88,00000;5,86666;1578,45095;0,03626
88,50000;5,90002;1581,50289;0,03655
89,00000;5,93336;1583,16679;0,03685
89,50000;5,96672;1586,20309;0,03714
90,00000;5,99999;1588,50923;0,03744
90,50000;6,03338;1590,92825;0,03774
91,00000;6,06666;1593,30331;0,03804
91,50000;6,10005;1594,48776;0,03834
92,00000;6,13333;1597,69952;0,03864
92,50000;6,16669;1599,48245;0,03894
93,00000;6,19999;1600,80791;0,03924
93,50000;6,23338;1602,76014;0,03955
94,00000;6,26666;1604,17948;0,03986
94,50000;6,30005;1604,93162;0,04016
95,00000;6,33330;1607,21261;0,04047
95,50000;6,36669;1608,50994;0,04078
96,00000;6,40005;1609,39042;0,04109
96,50000;6,43335;1612,09144;0,04141
97,00000;6,46666;1612,12273;0,04172
97,50000;6,50008;1613,37610;0,04204
98,00000;6,53335;1614,95227;0,04235
98,50000;6,56663;1615,42539;0,04267
99,00000;6,59999;1615,91098;0,04299
99,50000;6,63335;1616,24327;0,04331
100,00000;6,66666;1617,36812;0,04363
100,50000;6,70002;1617,69390;0,04395
101,00000;6,73335;1618,34266;0,04427
101,50000;6,76669;1619,41741;0,04460
102,00000;6,79999;1618,62466;0,04492
102,50000;6,83338;1618,20464;0,04525
103,00000;6,86666;1618,19216;0,04558
103,50000;6,90002;1618,81261;0,04591
104,00000;6,93333;1618,31118;0,04623
104,50000;6,96674;1618,75933;0,04656
105,00000;6,99999;1618,26108;0,04689
105,50001;7,03335;1618,10126;0,04723
106,00001;7,06669;1617,91015;0,04756
106,50001;7,10005;1617,19881;0,04789
107,00001;7,13333;1617,32417;0,04822
107,50001;7,16669;1616,52528;0,04856
108,00001;7,19999;1615,40657;0,04889
108,50001;7,23338;1614,93961;0,04923
109,00001;7,26669;1615,53826;0,04957
109,50001;7,30002;1614,24726;0,04991
110,00001;7,33332;1612,91547;0,05024
110,44801;7,36324;1612,28888;0,05054
110,85801;7,39042;1612,38275;0,05082
111,35801;7,42370;1610,73469;0,05116
111,85801;7,45709;1609,81975;0,05150
112,35801;7,49036;1608,81076;0,05184
112,85801;7,52372;1607,82691;0,05218
113,35801;7,55706;1606,77396;0,05252
113,85801;7,59042;1605,51444;0,05286
114,35801;7,62372;1604,68407;0,05320
114,85801;7,65711;1602,57835;0,05354
115,35801;7,69039;1602,16466;0,05389
115,85801;7,72375;1600,80474;0,05423
116,35801;7,75706;1599,59849;0,05457
116,85801;7,79036;1598,22293;0,05491
117,35801;7,82378;1595,80391;0,05526
117,85801;7,85706;1595,51557;0,05560
118,35801;7,89039;1593,94890;0,05595
118,85801;7,92375;1592,44481;0,05630
119,35801;7,95711;1591,29798;0,05664
119,85801;7,99036;1590,06026;0,05698
120,35801;8,02372;1587,80105;0,05733
120,85801;8,05708;1585,93673;0,05767
121,35801;8,09039;1584,69584;0,05802
121,85801;8,12375;1583,23888;0,05836
122,35801;8,15706;1582,17978;0,05871
122,85801;8,19036;1579,55699;0,05906
123,35801;8,22372;1578,40718;0,05941
123,85801;8,25711;1576,29196;0,05976
124,35801;8,29036;1574,59378;0,06010
124,85801;8,32375;1573,10534;0,06045
125,35801;8,35708;1572,03060;0,06080
125,85801;8,39045;1569,38601;0,06115
126,35801;8,42372;1568,37702;0,06150
126,85801;8,45708;1566,34971;0,06185
127,35801;8,49039;1564,38183;0,06219
127,85801;8,52375;1563,11914;0,06254
128,35801;8,55705;1561,87834;0,06289
128,85801;8,59042;1560,30534;0,06324
129,35801;8,62369;1558,41904;0,06358
129,85801;8,65708;1556,40738;0,06393
130,35801;8,69039;1554,73724;0,06428
130,85801;8,72372;1552,64726;0,06463
131,35801;8,75706;1550,68887;0,06498
131,85801;8,79042;1549,22558;0,06532
132,35801;8,82372;1547,31413;0,06567
132,85801;8,85706;1545,80697;0,06601
133,35801;8,89036;1544,40003;0,06636
133,85801;8,92375;1542,28816;0,06671
134,35801;8,95711;1540,23888;0,06706
134,85801;8,99036;1537,63499;0,06740
135,35801;9,02372;1537,09920;0,06775
135,85801;9,05708;1535,10319;0,06810
136,35801;9,09039;1533,00064;0,06845
136,85801;9,12375;1531,76300;0,06879
137,35801;9,15711;1529,87661;0,06914
137,85801;9,19036;1528,06863;0,06949
138,35801;9,22372;1526,71812;0,06983
138,85801;9,25711;1524,75350;0,07018
139,35801;9,29036;1523,14287;0,07053
139,85801;9,32372;1521,61065;0,07087
140,35801;9,35711;1518,83755;0,07122
140,85801;9,39042;1518,07303;0,07157
141,35801;9,42369;1515,97988;0,07191
141,85801;9,45708;1514,49777;0,07226
142,35801;9,49036;1512,38898;0,07260
142,85801;9,52375;1512,04122;0,07295
143,35801;9,55708;1509,26495;0,07330
143,85801;9,59039;1507,13734;0,07364
144,35801;9,62372;1506,18171;0,07399
144,85801;9,65711;1504,22323;0,07434
145,35801;9,69039;1502,39337;0,07468
145,85801;9,72375;1500,73888;0,07503
146,35801;9,75708;1499,64532;0,07537
146,85801;9,79039;1498,02538;0,07572
147,35801;9,82378;1496,73130;0,07606
147,85801;9,85708;1493,88928;0,07641
148,35801;9,89039;1493,31586;0,07675
148,85801;9,92375;1491,32609;0,07710
149,35801;9,95708;1490,23877;0,07744
149,85801;9,99036;1488,43396;0,07778
150,35801;10,02372;1486,94869;0,07813
150,85801;10,05708;1485,42589;0,07847
151,35801;10,09036;1483,53018;0,07881
151,85801;10,12375;1482,51178;0,07916
152,35801;10,15705;1480,71004;0,07950
152,85801;10,19039;1480,01444;0,07984
153,35801;10,22372;1477,12538;0,08019
153,85801;10,25711;1476,56454;0,08053
154,35801;10,29036;1473,86352;0,08087
154,85801;10,32375;1473,02067;0,08122
155,35801;10,35708;1471,61372;0,08156
155,85801;10,39042;1469,89971;0,08190
156,35801;10,42372;1468,79368;0,08224
156,85801;10,45708;1467,08908;0,08259
157,35801;10,49039;1465,70094;0,08293
157,85801;10,52375;1464,92384;0,08328
158,35801;10,55705;1463,24746;0,08362
158,85801;10,59042;1462,45155;0,08396
159,35801;10,62369;1460,91934;0,08430
159,85801;10,65708;1459,06750;0,08464
160,35801;10,69042;1457,66689;0,08499
160,85801;10,72372;1456,74562;0,08533
161,35801;10,75705;1455,46095;0,08567
161,85801;10,79042;1454,77159;0,08601
162,35801;10,82375;1452,77241;0,08636
162,85801;10,85708;1452,30871;0,08670
163,35801;10,89039;1450,74194;0,08704
163,85801;10,92375;1449,60145;0,08739
164,35801;10,95714;1447,95952;0,08773
164,85801;10,99036;1447,18867;0,08807
165,35801;11,02372;1445,69715;0,08841
165,85801;11,05711;1444,22762;0,08875
166,35801;11,09039;1443,24051;0,08909
166,85801;11,12375;1442,09061;0,08944
167,35801;11,15708;1440,84971;0,08978
167,85801;11,19036;1439,69040;0,09012
168,35801;11,22372;1437,78529;0,09046
168,85801;11,25711;1437,34654;0,09080
169,35801;11,29036;1435,46648;0,09114
169,85801;11,32375;1434,60166;0,09148
170,35801;11,35708;1433,58642;0,09182
170,85801;11,39041;1432,17016;0,09216
171,35801;11,42372;1431,72834;0,09250
171,85801;11,45708;1429,87333;0,09284
172,35801;11,49036;1428,75789;0,09318
172,85801;11,52375;1428,13744;0,09352
173,35801;11,55708;1426,58949;0,09386
173,85801;11,59039;1425,59623;0,09420
174,35801;11,62372;1424,26137;0,09454
174,85801;11,65711;1423,20860;0,09488
175,35801;11,69039;1422,88897;0,09522
175,85801;11,72372;1421,09348;0,09556
176,35801;11,75705;1420,47936;0,09590
176,85801;11,79038;1418,82179;0,09624
177,35801;11,82378;1418,54919;0,09658
177,85801;11,85708;1416,95738;0,09692
178,35801;11,89038;1415,81371;0,09726
178,85801;11,92378;1415,74163;0,09760
179,35801;11,95708;1414,41934;0,09795
179,85801;11,99036;1413,67670;0,09829
180,35801;12,02375;1412,11627;0,09863
180,85801;12,05708;1411,41126;0,09897
181,35801;12,09038;1409,96045;0,09931
181,85801;12,12375;1409,04859;0,09965
182,35801;12,15705;1408,42190;0,09999
182,85801;12,19036;1408,19941;0,10032
183,35801;12,22372;1406,65779;0,10067
183,85801;12,25711;1406,26300;0,10101
184,35801;12,29036;1405,10360;0,10135
184,85801;12,32375;1404,29204;0,10169
185,35801;12,35708;1403,51187;0,10203
185,85801;12,39044;1402,71597;0,10237
186,35801;12,42369;1401,02394;0,10271
186,85801;12,45708;1399,82384;0,10305
187,35801;12,49039;1399,23468;0,10339
187,85801;12,52375;1398,23519;0,10373
188,35801;12,55705;1397,84347;0,10407
188,85801;12,59044;1397,17292;0,10441
189,35801;12,62372;1396,71545;0,10475
189,85801;12,65708;1395,43386;0,10508
190,35801;12,69041;1394,60666;0,10542
190,85801;12,72372;1393,40339;0,10576
191,35801;12,75705;1392,93028;0,10610
191,85801;12,79038;1392,57619;0,10644
192,35801;12,82375;1391,86801;0,10678
192,85801;12,85705;1390,79010;0,10712
193,35801;12,89038;1389,37067;0,10746
193,85801;12,92375;1389,18897;0,10780
194,35801;12,95711;1388,30533;0,10814
194,85801;12,99035;1387,63161;0,10848
195,35801;13,02372;1386,45666;0,10882
195,85801;13,05711;1385,81423;0,10916
196,35801;13,09038;1385,59490;0,10950
196,85801;13,12375;1385,07793;0,10985
197,35801;13,15711;1383,01607;0,11019
197,85801;13,19036;1383,89347;0,11053
198,35801;13,22372;1383,71177;0,11087
198,85801;13,25711;1381,84112;0,11121
199,35801;13,29038;1381,40870;0,11155
199,85801;13,32369;1380,94490;0,11189
200,35801;13,35711;1379,65390;0,11224
200,85801;13,39041;1378,85176;0,11258
201,35801;13,42372;1378,28467;0,11292
201,85801;13,45711;1376,97170;0,11326
202,35801;13,49035;1376,84951;0,11360
202,85801;13,52375;1376,39204;0,11394
203,35801;13,55705;1376,10687;0,11429
203,85801;13,59041;1375,40186;0,11463
204,35801;13,62372;1374,62476;0,11497
204,85801;13,65711;1373,49674;0,11531
205,35801;13,69038;1372,89828;0,11565
205,85801;13,72374;1373,10512;0,11599
206,35801;13,75708;1371,90809;0,11634
206,85801;13,79041;1371,02138;0,11668
207,35801;13,82377;1370,78008;0,11702
207,85801;13,85708;1370,36331;0,11736
208,35801;13,89035;1369,40451;0,11770
208,85801;13,92377;1369,47036;0,11804
209,35801;13,95711;1368,37363;0,11839
209,85801;13,99035;1367,74695;0,11872
210,35801;14,02375;1366,32752;0,11907
210,85801;14,05708;1365,93580;0,11941
211,35801;14,09035;1365,74153;0,11975
211,85801;14,12377;1364,88928;0,12009
212,35801;14,15705;1365,03652;0,12044
212,85801;14,19035;1364,77957;0,12078
213,35801;14,22372;1364,01812;0,12112
213,85801;14,25711;1362,92772;0,12146
214,35801;14,29035;1362,90574;0,12181
214,85801;14,32374;1362,12241;0,12215
215,35801;14,35708;1361,74951;0,12249
215,85801;14,39044;1359,96351;0,12284
216,35801;14,42372;1360,11075;0,12318
216,85801;14,45708;1360,14214;0,12352
217,35801;14,49038;1359,10809;0,12387
217,85801;14,52374;1358,70073;0,12421
218,35801;14,55705;1358,55032;0,12455
218,85801;14,59041;1357,65420;0,12489
219,35801;14,62372;1357,12149;0,12524
219,85801;14,65708;1356,58570;0,12558
220,35801;14,69041;1356,38509;0,12593
220,85801;14,72374;1356,09685;0,12627
221,35801;14,75705;1356,53550;0,12662
221,85801;14,79038;1354,55206;0,12696
222,35801;14,82374;1354,45809;0,12731
222,85801;14,85708;1354,12281;0,12765
223,35801;14,89038;1353,50237;0,12799
223,85801;14,92374;1352,93519;0,12834
224,35801;14,95711;1352,38692;0,12869
224,85801;14,99035;1352,60625;0,12903
225,35801;15,02371;1351,38417;0,12937
225,85801;15,05711;1350,67916;0,12972
226,35801;15,09038;1350,77946;0,13006
226,85801;15,12374;1350,28120;0,13041
227,35801;15,15708;1349,57302;0,13075
227,85801;15,19038;1349,30676;0,13110
228,35801;15,22372;1348,30400;0,13144
228,85801;15,25713;1348,47946;0,13179
229,35801;15,29035;1348,02200;0,13214
229,85801;15,32374;1347,88724;0,13248
230,35801;15,35711;1347,34837;0,13283
230,85801;15,39041;1346,22343;0,13317
231,35801;15,42369;1346,97231;0,13352
231,85801;15,45711;1345,99470;0,13387
232,35801;15,49038;1345,47455;0,13421
232,85801;15,52374;1344,70994;0,13456
233,35801;15,55705;1344,92302;0,13491
233,85801;15,59041;1344,43427;0,13526
234,35801;15,62371;1344,70370;0,13560
234,85801;15,65710;1343,81698;0,13595
235,35801;15,69038;1343,41903;0,13630
235,85801;15,72374;1343,44092;0,13665
236,35801;15,75707;1343,38140;0,13700
236,85801;15,79035;1342,39439;0,13734
237,35801;15,82377;1342,78610;0,13770
237,85801;15,85707;1342,13744;0,13804
238,35801;15,89035;1341,43867;0,13839
238,85801;15,92374;1341,40421;0,13874
239,35801;15,95710;1340,74306;0,13909
239,85801;15,99035;1340,75247;0,13944
240,35801;16,02374;1340,40779;0,13979
240,85801;16,05707;1340,16648;0,14014
241,35801;16,09038;1340,34511;0,14049
241,85801;16,12374;1339,58058;0,14084
242,35801;16,15708;1340,05686;0,14119
242,85801;16,19038;1338,85052;0,14154
243,35801;16,22371;1338,25196;0,14189
243,85801;16,25710;1337,68795;0,14224
244,35801;16,29038;1337,63161;0,14258
244,85801;16,32374;1338,22383;0,14293
245,35801;16,35708;1338,69378;0,14329
245,85801;16,39044;1336,78867;0,14364
246,35801;16,42371;1337,30257;0,14398
246,85801;16,45710;1336,06177;0,14434
247,35801;16,49038;1336,13693;0,14469
247,85801;16,52374;1335,39746;0,14504
248,35801;16,55705;1335,58856;0,14539
248,85801;16,59044;1334,85226;0,14574
249,35801;16,62371;1335,32220;0,14609
249,85801;16,65708;1334,39163;0,14645
250,35801;16,69041;1334,34152;0,14680
250,85801;16,72371;1333,79316;0,14715
251,35801;16,75704;1333,91535;0,14750
251,85801;16,79038;1334,04378;0,14785
252,35801;16,82374;1333,36699;0,14820
252,85801;16,85707;1332,55543;0,14856
253,35801;16,89038;1332,93457;0,14891
253,85801;16,92374;1332,60554;0,14926
254,35801;16,95710;1332,73713;0,14962
254,85801;16,99035;1332,74654;0,14997
255,35801;17,02371;1331,99450;0,15032
255,85801;17,05710;1331,77517;0,15068
256,35801;17,09038;1331,49950;0,15103
256,85801;17,12374;1332,00083;0,15139
257,35801;17,15710;1330,58447;0,15174
257,85801;17,19038;1330,74122;0,15210
258,35801;17,22371;1330,70666;0,15245
258,85801;17,25710;1329,80430;0,15281
259,35801;17,29038;1329,90768;0,15316
259,85801;17,32374;1329,95779;0,15352
260,35801;17,35710;1329,53795;0,15387
260,85801;17,39044;1328,71699;0,15423
261,35801;17,42371;1328,56341;0,15459
261,85801;17,45710;1328,68560;0,15494
262,35801;17,49035;1328,51014;0,15530
262,85801;17,52374;1328,34101;0,15565
263,35801;17,55705;1328,01821;0,15600
263,85801;17,59041;1328,08406;0,15636
264,35801;17,62371;1327,57016;0,15672
264,85801;17,65710;1326,81187;0,15707
265,35801;17,69038;1326,81811;0,15743
265,85801;17,72374;1327,21290;0,15779
266,35801;17,75707;1326,15380;0,15814
266,85801;17,79038;1326,41708;0,15850
267,35801;17,82377;1326,44521;0,15886
267,85801;17,85707;1326,35441;0,15922
268,35801;17,89035;1325,65871;0,15957
268,85801;17,92377;1325,19184;0,15994
269,35801;17,95710;1326,26351;0,16029
269,85801;17,99038;1325,02578;0,16065
270,35801;18,02374;1325,44255;0,16101
270,85801;18,05707;1325,03519;0,16137
271,35801;18,09035;1324,75942;0,16172
271,85801;18,12374;1324,44929;0,16208
272,35801;18,15707;1324,92241;0,16244
272,85801;18,19038;1324,38345;0,16280
273,35801;18,22371;1324,28631;0,16316
273,85801;18,25710;1323,49040;0,16352
274,35801;18,29038;1323,55932;0,16388
274,85801;18,32374;1323,57189;0,16424
275,35801;18,35710;1323,31811;0,16460
275,85801;18,39043;1322,90134;0,16496
276,35801;18,42371;1323,73171;0,16532
276,85801;18,45710;1322,82618;0,16569
277,35801;18,49038;1323,14889;0,16605
277,85801;18,52374;1323,11443;0,16641
278,35801;18,55707;1322,42190;0,16677
278,85801;18,59041;1322,89818;0,16713
279,35801;18,62371;1322,18068;0,16749
279,85801;18,65710;1321,90809;0,16786
280,35801;18,69040;1321,99889;0,16822
280,85801;18,72374;1322,01146;0,16858
281,35801;18,75704;1321,53826;0,16894
281,85801;18,79041;1322,45328;0,16931
282,35801;18,82374;1321,90492;0,16967
282,85801;18,85704;1321,40042;0,17003
283,35801;18,89038;1321,42548;0,17039
283,85801;18,92374;1320,95553;0,17076
284,35801;18,95710;1321,09653;0,17113
284,85801;18,99038;1320,78938;0,17149
285,35801;19,02371;1321,20615;0,17186
285,85801;19,05710;1320,60144;0,17222
286,35801;19,09038;1320,10942;0,17258
286,85801;19,12374;1320,25359;0,17295
287,35801;19,15710;1319,62067;0,17332
287,85801;19,19038;1320,43222;0,17368
288,35801;19,22371;1319,83999;0,17405
288,85801;19,25713;1319,72404;0,17442
289,35801;19,29038;1319,23519;0,17478
289,85801;19,32374;1320,52936;0,17514
290,35801;19,35710;1319,64888;0,17551
290,85801;19,39043;1319,43263;0,17588
291,35801;19,42368;1319,51720;0,17625
291,85801;19,45710;1319,49531;0,17662
292,35801;19,49035;1319,80237;0,17699
292,85801;19,52374;1319,30728;0,17735
293,35801;19,55707;1318,94695;0,17772
293,85801;19,59040;1319,18509;0,17809
294,35801;19,62371;1318,73386;0,17846
294,85801;19,65710;1318,60543;0,17883
295,35801;19,69041;1318,98774;0,17920
295,85801;19,72374;1319,16320;0,17957
296,35801;19,75707;1319,14746;0,17994
296,85801;19,79038;1318,40492;0,18030
297,35801;19,82379;1318,10410;0,18067
297,85801;19,85707;1318,64613;0,18105
298,35801;19,89037;1318,64613;0,18142
298,85801;19,92377;1318,56157;0,18179
299,35801;19,95710;1317,92547;0,18216
299,85801;19,99035;1318,41740;0,18253
300,35801;20,02374;1318,14796;0,18290
300,85801;20,05707;1317,78764;0,18327
301,35801;20,09038;1317,71239;0,18364
301,85801;20,12377;1318,41740;0,18401
302,35801;20,15707;1317,91923;0,18438
302,85801;20,19037;1318,19183;0,18476
303,35801;20,22371;1318,21372;0,18513
303,85801;20,25710;1317,09827;0,18550
304,35801;20,29037;1317,19848;0,18587
304,85801;20,32374;1317,62465;0,18625
305,35801;20,35707;1318,16985;0,18662
305,85801;20,39043;1317,11699;0,18699
306,35801;20,42371;1317,55574;0,18736
306,85801;20,45707;1316,71596;0,18774
307,35801;20,49038;1316,86321;0,18811
307,85801;20,52374;1317,55881;0,18849
308,35801;20,55707;1317,38028;0,18887
308,85801;20,59040;1317,34265;0,18924
309,35801;20,62368;1317,24551;0,18962
309,85801;20,65710;1317,56198;0,18999
310,35801;20,69040;1317,60268;0,19037
310,85801;20,72374;1317,09827;0,19075
311,35801;20,75704;1317,79071;0,19112
311,85801;20,79040;1317,65911;0,19150
312,35801;20,82374;1317,68733;0,19188
312,85801;20,85707;1318,06964;0,19226
313,35801;20,89038;1317,55881;0,19263
313,85801;20,92374;1317,31126;0,19301
314,35801;20,95710;1318,00696;0,19339
314,85801;20,99038;1317,65595;0,19376
315,35801;21,02374;1317,35206;0,19414
315,85802;21,05707;1318,41740;0,19452
316,35802;21,09038;1317,83774;0,19489
316,85802;21,12374;1317,31760;0,19527
317,35802;21,15713;1317,04500;0,19566
317,85802;21,19035;1317,59644;0,19603
318,35802;21,22371;1317,57762;0,19641
318,85802;21,25710;1317,15154;0,19680
319,35802;21,29037;1317,44919;0,19717
319,85802;21,32374;1317,82517;0,19755
320,35802;21,35710;1317,42097;0,19793
320,85802;21,39043;1317,26433;0,19831
321,35802;21,42371;1316,45901;0,19869
321,85802;21,45710;1317,25175;0,19907
322,35802;21,49035;1317,33324;0,19945
322,85802;21,52374;1316,80993;0,19983
323,35802;21,55707;1317,63089;0,20021
323,85802;21,59040;1317,83457;0,20059
324,35802;21,62371;1317,19541;0,20097
324,85802;21,65710;1316,67834;0,20135
325,35802;21,69037;1317,78764;0,20173
325,85802;21,72374;1317,22670;0,20212
326,35802;21,75707;1317,51187;0,20250
326,85802;21,79040;1318,29837;0,20288
327,35802;21,82376;1317,03243;0,20327
327,85802;21,85707;1317,35206;0,20365
328,35802;21,89037;1316,74418;0,20403
328,85802;21,92376;1317,57455;0,20442
329,35802;21,95710;1317,34265;0,20480
329,85802;21,99037;1317,86596;0,20519
330,35802;22,02374;1317,31760;0,20557
330,85802;22,05707;1318,00063;0,20596
331,35802;22,09037;1317,39909;0,20634
331,85802;22,12376;1317,63406;0,20673
332,35802;22,15704;1317,76249;0,20712
332,85802;22,19037;1317,61208;0,20750
333,35802;22,22373;1318,14796;0,20788
333,85802;22,25710;1317,61208;0,20827
334,35802;22,29037;1317,64971;0,20866
334,85802;22,32374;1318,10410;0,20905
335,35802;22,35710;1318,28263;0,20944
335,85802;22,39043;1317,44603;0,20983
336,35802;22,42371;1317,09510;0,21021
336,85802;22,45707;1318,29204;0,21060
337,35802;22,49037;1317,80636;0,21099
337,85802;22,52373;1317,63723;0,21138
338,35802;22,55707;1318,23877;0,21176
338,85802;22,59040;1318,67751;0,21215
339,35802;22,62371;1317,99756;0,21254
339,85802;22,65707;1318,25451;0,21292
340,35802;22,69040;1318,48324;0,21331
340,85802;22,72373;1318,31085;0,21370
341,35802;22,75704;1318,39551;0,21409
341,85802;22,79040;1318,49889;0,21448
342,35802;22,82373;1318,87803;0,21487
342,85802;22,85707;1319,09419;0,21526
343,35802;22,89037;1318,81852;0,21565
343,85802;22,92373;1318,87179;0,21604
344,35802;22,95713;1318,37353;0,21643
344,85802;22,99034;1318,88120;0,21682
345,35802;23,02371;1319,04092;0,21722
345,85802;23,05710;1318,73079;0,21761
346,35802;23,09037;1319,08478;0,21800
346,85802;23,12373;1318,48948;0,21839
347,35802;23,15710;1319,52660;0,21879
347,85802;23,19037;1318,83100;0,21918
348,35802;23,22371;1319,98416;0,21958
348,85802;23,25709;1319,01903;0,21997
349,35802;23,29037;1319,56115;0,22036
349,85802;23,32374;1320,05308;0,22076
350,35802;23,35710;1320,03110;0,22115
350,85802;23,39040;1320,01545;0,22154
351,35802;23,42370;1319,84940;0,22194
351,85802;23,45710;1319,89010;0,22233
352,35802;23,49037;1319,72404;0,22272
352,85802;23,52373;1320,66412;0,22312
353,35802;23,55707;1320,02486;0,22352
353,85802;23,59037;1321,11218;0,22392
354,35802;23,62370;1320,65471;0,22431
354,85802;23,65709;1320,19091;0,22471
355,35802;23,69040;1321,07455;0,22510
355,85802;23,72373;1321,31269;0,22549
356,35802;23,75707;1320,92098;0,22589
356,85802;23,79040;1320,68284;0,22628
357,35802;23,82376;1320,82077;0,22668
357,85802;23,85706;1321,05257;0,22708
358,35802;23,89037;1320,32251;0,22747
358,85802;23,92376;1321,19050;0,22787
359,35802;23,95709;1320,96801;0,22826
359,85802;23,99034;1320,95236;0,22865
360,35802;24,02373;1321,46310;0,22905
360,85802;24,05707;1321,11842;0,22944
361,35802;24,09037;1321,02128;0,22984
361,85802;24,12373;1320,83017;0,23024
362,35802;24,15706;1321,24377;0,23064
362,85802;24,19037;1321,83908;0,23104
363,35802;24,22371;1321,42548;0,23144
363,85802;24,25709;1321,39726;0,23184
364,35802;24,29037;1321,68867;0,23223
364,85802;24,32373;1321,56964;0,23263
365,35802;24,35707;1322,08662;0,23304
365,85802;24,39043;1322,05216;0,23344
366,35802;24,42370;1322,22138;0,23384
366,85802;24,45707;1321,98324;0,23424
367,35802;24,49037;1322,65380;0,23464
367,85802;24,52376;1322,37496;0,23504
368,35802;24,55704;1323,10502;0,23544
368,85802;24,59040;1322,97343;0,23584
369,35802;24,62370;1322,87629;0,23624
369,85802;24,65707;1322,86064;0,23663
370,35802;24,69043;1323,37762;0,23703
370,85802;24,72373;1323,18018;0,23743
371,35802;24,75704;1323,16453;0,23784
371,85802;24,79040;1324,07323;0,23824
372,35802;24,82376;1323,97925;0,23864
372,85802;24,85706;1323,26791;0,23905
373,35802;24,89040;1324,01371;0,23946
373,85802;24,92373;1323,52486;0,23986
374,35802;24,95709;1324,23621;0,24027
374,85802;24,99037;1324,30829;0,24068
375,35802;25,02370;1324,23621;0,24108
375,85802;25,05709;1323,80379;0,24149
376,35802;25,09037;1325,30471;0,24190
376,85802;25,12376;1324,89102;0,24230
377,35802;25,15709;1324,36464;0,24271
377,85802;25,19037;1324,86913;0,24311
378,35802;25,22373;1324,77824;0,24352
378,85802;25,25712;1324,83151;0,24392
379,35802;25,29034;1324,40226;0,24433
379,85802;25,32373;1325,35165;0,24473
380,35802;25,35709;1324,80962;0,24514
380,85802;25,39043;1325,10411;0,24554
381,35802;25,42370;1325,46136;0,24595
381,85802;25,45709;1325,03211;0,24636
382,35802;25,49037;1325,34541;0,24677
382,85802;25,52373;1325,45512;0,24718
383,35802;25,55704;1325,63366;0,24759
383,85802;25,59040;1325,40185;0,24800
384,35802;25,62370;1325,80604;0,24841
384,85802;25,65709;1325,43938;0,24882
385,35802;25,69040;1326,20400;0,24923
385,85802;25,72373;1326,03478;0,24964
386,35802;25,75706;1326,19767;0,25005
386,85802;25,79040;1326,85257;0,25046
387,35802;25,82379;1327,03120;0,25087
387,85802;25,85706;1326,30114;0,25127
388,35802;25,89037;1326,86198;0,25168
388,85802;25,92376;1328,04960;0,25210
389,35802;25,95712;1326,74603;0,25251
389,85802;25,99034;1326,85257;0,25292
390,35802;26,02373;1327,58263;0,25333
390,85802;26,05706;1327,42915;0,25375
391,35802;26,09037;1327,77067;0,25416
391,85802;26,12373;1328,13733;0,25456
392,35802;26,15709;1327,73938;0,25497
392,85802;26,19037;1327,45737;0,25538
393,35802;26,22373;1329,14940;0,25578
393,85802;26,25709;1328,36290;0,25620
394,35802;26,29037;1328,65114;0,25662
394,85802;26,32373;1328,78907;0,25704
395,35802;26,35706;1328,46003;0,25746
395,85802;26,39042;1328,82660;0,25787
396,35802;26,42370;1328,34408;0,25828
396,85802;26,45709;1328,80155;0,25870
397,35802;26,49037;1329,45646;0,25911
397,85802;26,52373;1329,50032;0,25952
398,35802;26,55703;1328,84234;0,25994
398,85802;26,59040;1330,17087;0,26035
399,35802;26,62370;1329,83560;0,26077
399,85802;26,65706;1329,57557;0,26119
400,35802;26,69042;1330,41525;0,26161
400,85802;26,72370;1329,96719;0,26202
401,35802;26,75704;1330,17711;0,26244
401,85802;26,79040;1330,49367;0,26285
402,35802;26,82373;1331,33968;0,26324
402,85802;26,85706;1330,55001;0,26365
403,35802;26,89037;1331,28008;0,26405
403,85802;26,92373;1331,44623;0,26446
404,35802;26,95709;1331,29889;0,26487
404,85802;26,99037;1331,58723;0,26528
405,35802;27,02373;1332,11985;0,26570
405,85802;27,05712;1331,11719;0,26614
406,35802;27,09037;1331,10778;0,26658
406,85802;27,12373;1331,35216;0,26702
407,35802;27,15712;1332,28283;0,26744
407,85802;27,19037;1331,61535;0,26786
408,35802;27,22370;1331,56525;0,26828
408,85802;27,25712;1331,72506;0,26871
409,35802;27,29037;1332,37997;0,26914
409,85802;27,32373;1332,85308;0,26956
410,35802;27,35712;1332,20451;0,26998
410,85802;27,39043;1332,71832;0,27040
411,35802;27,42370;1332,87814;0,27082
411,85802;27,45709;1331,84418;0,27124
412,35802;27,49037;1332,71525;0,27166
412,85802;27,52373;1333,40769;0,27208
413,35802;27,55706;1333,50175;0,27249
413,85802;27,59039;1333,39521;0,27291
414,35802;27,62373;1333,80564;0,27333
414,85802;27,65709;1332,92517;0,27376
415,35802;27,69039;1333,68345;0,27418
415,85802;27,72376;1332,94081;0,27461
416,35802;27,75706;1334,08140;0,27505
416,85802;27,79040;1333,45472;0,27546
417,35802;27,82379;1334,03754;0,27589
417,85802;27,85706;1333,84010;0,27631
418,35802;27,89037;1334,15656;0,27673
418,85802;27,92373;1334,16597;0,27716
419,35802;27,95712;1334,29132;0,27757
419,85802;27,99037;1334,25063;0,27799
420,35802;28,02376;1334,25370;0,27841
420,85802;28,05709;1334,32578;0,27882
421,35802;28,09037;1334,66106;0,27924
421,85802;28,12376;1334,41044;0,27968
422,35802;28,15703;1335,08099;0,28010
422,85802;28,19037;1335,67629;0,28054
423,35802;28,22373;1335,64807;0,28097
423,85802;28,25712;1334,70809;0,28141
424,35802;28,29036;1334,60779;0,28182
424,85802;28,32373;1336,04603;0,28223
425,35802;28,35709;1335,42567;0,28266
425,85802;28,39042;1335,55410;0,28308
426,35802;28,42370;1336,05236;0,28351
426,85802;28,45709;1335,43815;0,28393
427,35802;28,49037;1336,14317;0,28436
427,85802;28,52376;1335,78600;0,28478
428,35802;28,55706;1336,64766;0,28522
428,85802;28,59040;1336,43774;0,28564
429,35802;28,62370;1336,83253;0,28606
429,85802;28,65709;1337,16473;0,28648
430,35802;28,69039;1337,05502;0,28689
430,85802;28,72373;1337,60339;0,28731
431,35802;28,75703;1337,77261;0,28773
431,85802;28,79040;1338,06085;0,28814
432,35802;28,82373;1337,60339;0,28855
432,85802;28,85706;1337,76944;0,28899
433,35802;28,89039;1336,96413;0,28942
433,85802;28,92373;1337,97936;0,28988
434,35802;28,95709;1337,78509;0,29034
434,85802;28,99037;1337,61903;0,29076
435,35802;29,02370;1337,79142;0,29118
435,85802;29,05709;1338,05461;0,29160
436,35802;29,09040;1338,12353;0,29201
436,85802;29,12373;1337,39030;0,29242
437,35802;29,15712;1339,07609;0,29284
437,85802;29,19037;1338,48069;0,29327
438,35802;29,22373;1338,65308;0,29370
438,85802;29,25712;1338,33345;0,29415
439,35802;29,29037;1338,98212;0,29458
439,85802;29,32373;1339,62752;0,29500
440,35802;29,35712;1339,27353;0,29542
440,85802;29,39042;1339,04787;0,29586
441,35802;29,42370;1339,46463;0,29630
441,85802;29,45709;1339,53672;0,29675
442,35802;29,49037;1339,51474;0,29719
442,85802;29,52376;1340,22292;0,29762
443,35802;29,55706;1340,72118;0,29805
443,85802;29,59039;1340,54562;0,29848
444,35802;29,62370;1340,97496;0,29893
444,85802;29,65709;1340,26995;0,29938
445,35802;29,69039;1340,82139;0,29986
445,85802;29,72373;1341,11596;0,30032
446,35802;29,75706;1341,58600;0,30078
446,85802;29,79039;1341,86484;0,30122
447,35802;29,82378;1341,74265;0,30164
447,85802;29,85706;1341,53580;0,30205
448,35802;29,89036;1341,29766;0,30248
448,85802;29,92375;1342,11555;0,30291
449,35802;29,95712;1342,37874;0,30334
449,85802;29,99037;1342,14368;0,30377
450,35802;30,02373;1342,67015;0,30421
450,85802;30,05709;1342,25655;0,30464
451,35802;30,09036;1342,61996;0,30508
451,85802;30,12376;1343,21852;0,30551
452,35802;30,15706;1342,99602;0,30594
452,85802;30,19039;1342,90196;0,30638
453,35802;30,22373;1343,76055;0,30679
453,85802;30,25709;1342,95523;0,30713
454,35802;30,29037;1343,16208;0,30749
454,85802;30,32375;1343,30932;-0,01730
455,35802;30,35709;1343,12138;-0,01721
455,85802;30,39042;1343,01791;-0,01723
456,35802;30,42370;1342,76729;-0,01721
456,85802;30,45709;1343,26862;-0,01734
457,35802;30,49036;1343,88274;-0,01775
457,85802;30,52375;1343,54122;-0,01107
458,35802;30,55706;1343,78877;-0,02008
458,85802;30,59042;1343,85768;-0,01372
459,35802;30,62370;1344,19613;-0,00276
459,85802;30,65709;1344,39040;0,00720
460,35802;30,69042;1344,34653;0,00446
460,85802;30,72373;1344,69746;0,00437
461,35802;30,75706;1345,42445;0,00510
461,85802;30,79039;1345,14868;0,00525
462,35802;30,82376;1345,96964;0,00534
462,85802;30,85706;1345,33979;0,00545
463,35802;30,89036;1345,33979;0,00542
463,85802;30,92372;1345,69705;0,00557
464,35802;30,95712;1346,15451;0,00416
464,85802;30,99036;1346,23284;0,00378
465,35802;31,02373;1346,12005;-0,00217
465,85802;31,05709;1346,12313;-0,00073
466,35802;31,09036;1346,10124;-0,00080
466,85802;31,12372;1346,91903;-0,00073
467,35802;31,15712;1345,54971;-0,00073
467,85802;31,19036;1346,91596;-0,00073
468,35802;31,22372;1346,50543;-0,00073
468,85802;31,25711;1345,53406;-0,00074
469,35802;31,29036;1346,89081;-0,00073
469,85802;31,32372;1347,34204;-0,00073
470,35802;31,35708;1347,54255;-0,00074
470,85802;31,39042;1347,09766;-0,00074
471,35802;31,42370;1347,62721;-0,00074
471,85802;31,45708;1347,20104;-0,00074
472,35802;31,49036;1347,90298;-0,00074
472,85802;31,52375;1347,22926;-0,00075
473,35802;31,55706;1347,81525;-0,00075
473,85802;31,59039;1347,64602;-0,00075
474,35802;31,62369;1348,10973;-0,00075
474,85802;31,65708;1347,49245;-0,00075
475,35802;31,69039;1347,84654;-0,00075
475,85802;31,72372;1348,57353;-0,00075
476,35802;31,75706;1349,17507;-0,00075
476,85802;31,79039;1349,13120;-0,00075
477,35802;31,82378;1348,78969;-0,00075
477,85802;31,85705;1349,24408;-0,00075
478,35802;31,89036;1349,99296;-0,00075
478,85802;31,92375;1349,67016;-0,00075
479,35802;31,95709;1350,53499;-0,00075
479,85802;31,99036;1350,22486;-0,00075
480,35802;32,02375;1350,60083;-0,00076
480,85802;32,05706;1350,86719;-0,00076
481,35802;32,09036;1350,53499;-0,00076
481,85802;32,12375;1351,02067;-0,00076
482,35802;32,15706;1350,53499;-0,00076
482,85802;32,19036;1351,21495;-0,00076
483,35802;32,22375;1351,83539;-0,00076
483,85802;32,25708;1350,63846;-0,00076
484,35802;32,29036;1351,94510;-0,00076
484,85802;32,32372;1352,27721;-0,00076
485,35802;32,35709;1351,84480;-0,00076
485,85802;32,39045;1352,07670;-0,00076
486,35802;32,42369;1352,34613;-0,00077
486,85802;32,45708;1352,67200;-0,00077
487,35802;32,49039;1352,70022;-0,00077
487,85802;32,52375;1353,48355;-0,00077
488,35802;32,55702;1352,92895;-0,00077
488,85802;32,59042;1353,41147;-0,00077
489,35802;32,62372;1353,33948;-0,00077
489,85802;32,65708;1352,95400;-0,00077
490,35802;32,69039;1353,15768;-0,00077
490,85802;32,72372;1353,59634;-0,00077
491,35802;32,75706;1353,88775;-0,00077
491,85802;32,79039;1354,06330;-0,00077
492,35802;32,82372;1353,65902;-0,00077
492,85802;32,85708;1355,04091;-0,00077
493,35802;32,89039;1354,20114;-0,00077
493,85802;32,92372;1354,99388;-0,00077
494,35802;32,95711;1354,89358;-0,00077
494,85802;32,99039;1355,36361;-0,00077
495,35802;33,02369;1355,08478;-0,00077
495,85802;33,05708;1355,55789;-0,00077
496,35802;33,09039;1355,89633;-0,00078
496,85802;33,12375;1356,31310;-0,00077
497,35802;33,15709;1356,24409;-0,00078
497,85802;33,19039;1357,01811;-0,00078
498,35802;33,22372;1356,15952;-0,00078
498,85802;33,25711;1357,30011;-0,00078
499,35802;33,29036;1356,44777;-0,00078
499,85802;33,32372;1356,99613;-0,00078
500,35802;33,35711;1356,74858;-0,00078
500,85802;33,39042;1356,40083;-0,00078
501,35802;33,42369;1356,93662;-0,00078
501,85802;33,45711;1357,24368;-0,00078
502,35802;33,49036;1356,77364;-0,00078
502,85802;33,52375;1358,42497;-0,00078
503,35802;33,55705;1358,21188;-0,00078
503,85802;33,59039;1358,39051;-0,00078
504,35802;33,62369;1358,11167;-0,00078
504,85802;33,65708;1358,42497;-0,00078
505,35802;33,69039;1358,69756;-0,00078
505,85802;33,72375;1358,48764;-0,00078
506,35802;33,75708;1358,54715;-0,00078
506,85802;33,79039;1358,22445;-0,00078
507,35802;33,82378;1359,43396;-0,00078
507,85802;33,85708;1358,58478;-0,00078
508,35802;33,89036;1358,84797;-0,00079
508,85802;33,92375;1359,30236;-0,00078
509,35802;33,95711;1359,30544;-0,00078
509,85802;33,99036;1359,79746;-0,00078
510,35802;34,02375;1359,03601;-0,00078
510,85802;34,05708;1358,81975;-0,00078
511,35802;34,09039;1359,74418;-0,00079
511,85802;34,12375;1359,49971;-0,00079
512,35802;34,15705;1359,82251;-0,00079
512,85802;34,19039;1360,24235;-0,00079
513,35802;34,22372;1360,86280;-0,00079
513,85802;34,25708;1359,70339;-0,00079
514,35802;34,29039;1360,71555;-0,00079
514,85802;34,32375;1360,52128;-0,00079
515,35802;34,35708;1360,53069;-0,00079
515,85802;34,39042;1359,95727;-0,00079
516,35802;34,42369;1361,28580;-0,00079
516,85802;34,45708;1360,17967;-0,00079
517,35802;34,49036;1360,27057;-0,00079
517,85802;34,52375;1361,28897;-0,00079
518,35802;34,55705;1360,70922;-0,00079
518,85802;34,59042;1362,14746;-0,00079
519,35802;34,62369;1360,63723;-0,00079
519,85802;34,65708;1361,12915;-0,00079
520,35802;34,69041;1361,28580;-0,00079
520,85802;34,72375;1361,42997;-0,00079
521,35802;34,75703;1361,39551;-0,00079
521,85802;34,79042;1361,73079;-0,00079
522,35802;34,82375;1361,51137;-0,00079
522,85802;34,85705;1361,52711;-0,00079
523,35802;34,89039;1361,54899;-0,00079
523,85802;34,92375;1361,39859;-0,00079
524,35802;34,95711;1361,63989;-0,00079
524,85802;34,99036;1361,87486;-0,00079
525,35802;35,02375;1362,26034;-0,00079
525,85802;35,05708;1361,58345;-0,00079
526,35803;35,09039;1362,33866;-0,00079
526,85803;35,12375;1361,90308;-0,00079
527,35803;35,15711;1361,57405;-0,00079
527,85803;35,19038;1362,40758;-0,00079
528,35803;35,22369;1361,79971;-0,00080
528,85803;35,25714;1361,31402;-0,00080
529,35803;35,29036;1362,73028;-0,00080
529,85803;35,32372;1362,84940;-0,00079
530,35803;35,35711;1361,99398;-0,00080
530,85803;35,39042;1362,10676;-0,00080
531,35803;35,42369;1362,81494;-0,00080
531,85803;35,45708;1362,63007;-0,00080
532,35803;35,49036;1362,49214;-0,00080
532,85803;35,52375;1362,26341;-0,00080
533,35803;35,55705;1362,05032;-0,00080
533,85803;35,59039;1362,84316;-0,00080
534,35803;35,62372;1362,96842;-0,00080
534,85803;35,65708;1363,29429;-0,00080
535,35803;35,69039;1362,61433;-0,00080
535,85803;35,72375;1362,77732;-0,00080
536,35803;35,75705;1362,37619;-0,00080
536,85803;35,79038;1363,33192;-0,00080
537,35803;35,82375;1363,04675;-0,00080
537,85803;35,85708;1362,32926;-0,00080
538,35803;35,89036;1363,45727;-0,00080
538,85803;35,92374;1362,87445;-0,00080
539,35803;35,95708;1362,67394;-0,00080
539,85803;35,99036;1362,68958;-0,00080
540,35803;36,02375;1362,91515;-0,00080
540,85803;36,05708;1362,00963;-0,00080
541,35803;36,09035;1361,74327;-0,00080
541,85803;36,12375;1361,46443;-0,00080
542,35803;36,15708;1361,68376;-0,00080
542,85803;36,19036;1360,74685;-0,00080
543,35803;36,22375;1361,74019;-0,00080
543,85803;36,25708;1360,27373;-0,00080
544,35803;36,29036;1360,02302;-0,00080
544,85803;36,32372;1359,98540;-0,00080
545,35803;36,35708;1360,51811;-0,00080
545,85803;36,39044;1358,60676;-0,00080
546,35803;36,42369;1359,21463;-0,00080
546,85803;36,45708;1358,26208;-0,00080
547,35803;36,49038;1357,55707;-0,00080
547,85803;36,52375;1356,58877;-0,00080
548,35803;36,55702;1356,74858;-0,00080
548,85803;36,59041;1355,93079;-0,00080
549,35803;36,62369;1354,24184;-0,00080
549,85803;36,65708;1354,59909;-0,00080
550,35803;36,69038;1353,41147;-0,00080
550,85803;36,72375;1351,55022;-0,00080
551,35803;36,75705;1351,27455;-0,00080
551,85803;36,79039;1348,88683;-0,00080
552,35803;36,82375;1346,61198;-0,00080
552,85803;36,85705;1344,48754;-0,00080
553,35803;36,89038;1341,58907;-0,00080
553,54603;36,90295;771,69104;-0,00081