File: 02_Appendices/Appendix_C_Experimental_Data_and_Analysis Reports/C_1_Materials_Tests/C_1_1_Tensile_tests/C_1_1_2_Quanton Iron/Specimen_RawData_5.csv
Text Inputs : Specimen label;"1"
Dimension : Length;50,00000;mm
Dimension : Final length;100,00000;mm
Test : Rate 1;4,00000;mm/min
General : Unique Identifier;"{E6395B63-AC7F-46B0-85C9-272B49926A5C}"

Time;Extension;Load;Strain 1
(sec);(mm);(N);(mm/mm)
0,00000;0,00000;7,57821;0,00002
0,50000;0,03174;24,01302;0,00018
1,00000;0,06650;47,75499;0,00046
1,50000;0,10006;69,45396;0,00073
2,00000;0,13333;77,35019;0,00087
2,50000;0,16669;79,56239;0,00093
3,00000;0,20000;80,82830;0,00098
3,50000;0,23336;82,48275;0,00103
4,00000;0,26667;84,44426;0,00106
4,50000;0,30006;84,89548;0,00109
5,00000;0,33333;87,22048;0,00111
5,50000;0,36669;88,16677;0,00114
6,00000;0,40006;90,87719;0,00117
6,50000;0,43333;91,77648;0,00119
7,00000;0,46667;97,64852;0,00126
7,50000;0,50006;108,75025;0,00139
8,00000;0,53336;123,60582;0,00156
8,50000;0,56667;138,97840;0,00175
9,00000;0,60000;156,84207;0,00197
9,50000;0,63333;174,27645;0,00219
10,00000;0,66667;190,61100;0,00241
10,50000;0,70003;206,90481;0,00262
11,00000;0,73333;221,65070;0,00283
11,50000;0,76667;236,60967;0,00303
12,00000;0,80003;251,71279;0,00324
12,50000;0,83339;267,55226;0,00347
13,00000;0,86667;283,27578;0,00369
13,50000;0,90003;299,46307;0,00391
14,00000;0,93333;314,47844;0,00414
14,50000;0,96672;329,66614;0,00436
15,00000;1,00000;344,06737;0,00458
15,50000;1,03336;359,54649;0,00480
16,00000;1,06667;374,88774;0,00502
16,50000;1,10006;389,81852;0,00524
17,00000;1,13333;403,62123;0,00547
17,50000;1,16672;417,95042;0,00569
18,00000;1,19997;431,77507;0,00590
18,50000;1,23336;445,90998;0,00612
19,00000;1,26667;460,17333;0,00634
19,50000;1,30003;472,80416;0,00655
20,00000;1,33333;486,24654;0,00676
20,50000;1,36669;499,46019;0,00697
21,00000;1,40003;511,83412;0,00717
21,50000;1,43336;523,36198;0,00737
22,00000;1,46667;536,26229;0,00758
22,50000;1,50006;547,94056;0,00777
23,00000;1,53339;559,53111;0,00797
23,50000;1,56666;570,93678;0,00817
24,00000;1,60000;581,52773;0,00836
24,50000;1,63339;592,93029;0,00854
25,00000;1,66666;602,88832;0,00873
25,50000;1,70003;614,62615;0,00891
26,00000;1,73336;624,26766;0,00910
26,50000;1,76666;633,88101;0,00928
27,00000;1,80000;644,32472;0,00946
27,50000;1,83339;654,90003;0,00965
28,00000;1,86664;665,09936;0,00983
28,50000;1,90003;674,73152;0,01001
29,00000;1,93333;685,16266;0,01019
29,50000;1,96672;695,67533;0,01037
30,00000;2,00000;704,82804;0,01055
30,50000;2,03336;714,04343;0,01073
31,00000;2,06666;724,14875;0,01091
31,50000;2,10005;733,10095;0,01109
32,00000;2,13330;743,19057;0,01127
32,50000;2,16669;752,69737;0,01145
33,00000;2,20000;762,37656;0,01163
33,50000;2,23336;771,63894;0,01182
34,00000;2,26666;780,62564;0,01199
34,50000;2,30005;790,29538;0,01218
35,00000;2,33333;798,94671;0,01235
35,50000;2,36669;808,38464;0,01254
36,00000;2,40005;817,66900;0,01272
36,50000;2,43336;825,97882;0,01290
37,00000;2,46666;836,04967;0,01308
37,50000;2,50005;845,53137;0,01326
38,00000;2,53336;854,70602;0,01344
38,50000;2,56666;863,48904;0,01362
39,00000;2,60000;872,86420;0,01380
39,50000;2,63333;881,90101;0,01399
40,00000;2,66669;890,46154;0,01417
40,50000;2,70003;899,24140;0,01436
41,00000;2,73333;908,39732;0,01454
41,50000;2,76666;916,32484;0,01473
42,00000;2,80000;925,66246;0,01491
42,50000;2,83339;934,26686;0,01510
43,00000;2,86666;943,28169;0,01529
43,50000;2,90003;951,65428;0,01548
44,00000;2,93333;960,30561;0,01566
44,50000;2,96675;968,77525;0,01586
45,00000;2,99997;977,58332;0,01605
45,50000;3,03336;985,92453;0,01624
46,00000;3,06666;995,19314;0,01643
46,50000;3,10005;1003,55940;0,01663
47,00000;3,13333;1012,81246;0,01682
47,50000;3,16669;1020,85285;0,01702
48,00000;3,19997;1029,53864;0,01721
48,50000;3,23339;1038,53783;0,01742
49,00000;3,26669;1047,22055;0,01762
49,50000;3,30002;1055,06666;0,01782
50,00000;3,33330;1064,54212;0,01802
50,50000;3,36669;1072,29427;0,01822
51,00000;3,40002;1080,98639;0,01843
51,50000;3,43333;1089,16145;0,01863
52,00000;3,46666;1097,76584;0,01883
52,50000;3,50005;1105,08241;0,01904
53,00000;3,53336;1114,22893;0,01925
53,50000;3,56669;1121,37934;0,01945
54,00000;3,60000;1130,68568;0,01966
54,50000;3,63336;1138,35000;0,01987
55,00000;3,66666;1146,64417;0,02009
55,50000;3,70002;1153,94816;0,02030
56,00000;3,73336;1162,25174;0,02051
56,50000;3,76666;1169,88169;0,02073
57,00000;3,80000;1177,42699;0,02094
57,50000;3,83341;1185,00981;0,02116
58,00000;3,86663;1193,12545;0,02137
58,50000;3,90002;1200,77720;0,02159
59,00000;3,93336;1208,90224;0,02180
59,50000;3,96672;1215,22229;0,02202
60,00000;3,99997;1223,29406;0,02224
60,50000;4,03336;1230,84243;0,02246
61,00000;4,06666;1237,92086;0,02269
61,50000;4,10005;1244,98988;0,02291
62,00000;4,13333;1253,15869;0,02313
62,50000;4,16669;1258,98998;0,02336
63,00000;4,20000;1266,44447;0,02358
63,50000;4,23336;1273,67321;0,02381
64,00000;4,26666;1280,31299;0,02404
64,50000;4,30005;1287,79244;0,02427
65,00000;4,33333;1294,72045;0,02450
65,50000;4,36666;1300,90583;0,02473
66,00000;4,40008;1307,02853;0,02496
66,50000;4,43333;1313,65573;0,02519
67,00000;4,46666;1320,70910;0,02543
67,50000;4,50005;1325,85103;0,02566
68,00000;4,53336;1333,30859;0,02590
68,50000;4,56669;1338,85164;0,02614
69,00000;4,60002;1345,61667;0,02638
69,50000;4,63333;1350,99990;0,02662
70,00000;4,66666;1357,50808;0,02686
70,50000;4,70005;1363,65583;0,02710
71,00000;4,73333;1369,19264;0,02734
71,50000;4,76666;1374,96749;0,02759
72,00000;4,79999;1380,62332;0,02783
72,50000;4,83338;1384,94428;0,02808
73,00000;4,86666;1391,07956;0,02833
73,50000;4,90002;1396,98293;0,02858
74,00000;4,93333;1402,10614;0,02883
74,50000;4,96675;1406,93784;0,02908
75,00000;4,99999;1411,66616;0,02933
75,50000;5,03338;1417,00236;0,02958
76,00000;5,06666;1421,98764;0,02984
76,50000;5,10008;1425,94837;0,03009
77,00000;5,13333;1431,62925;0,03035
77,50000;5,16672;1435,90318;0,03061
78,00000;5,19997;1440,01739;0,03087
78,50000;5,23336;1445,00900;0,03113
79,00000;5,26669;1448,56544;0,03139
79,50000;5,30005;1453,60399;0,03165
80,00000;5,33333;1457,50502;0,03192
80,50000;5,36669;1461,27148;0,03219
81,00000;5,40002;1465,43579;0,03245
81,50000;5,43336;1469,49664;0,03272
82,00000;5,46666;1472,77107;0,03299
82,50000;5,50002;1476,02046;0,03326
83,00000;5,53338;1480,06259;0,03353
83,50000;5,56666;1483,55952;0,03380
84,00000;5,59999;1487,57659;0,03407
84,50000;5,63338;1490,92618;0,03435
85,00000;5,66666;1493,64909;0,03463
85,50000;5,70002;1495,86760;0,03491
86,00000;5,73336;1499,93794;0,03519
86,50000;5,76666;1502,60134;0,03547
87,00000;5,79999;1504,83856;0,03575
87,50000;5,83341;1508,21647;0,03604
88,00000;5,86663;1510,39725;0,03632
88,50000;5,90002;1513,45236;0,03660
89,00000;5,93336;1515,67087;0,03689
89,50000;5,96672;1517,31586;0,03718
90,00000;5,99996;1519,85707;0,03746
90,50000;6,03335;1522,86515;0,03775
91,00000;6,06666;1524,30972;0,03805
91,50000;6,10008;1526,27751;0,03834
92,00000;6,13333;1527,80972;0,03863
92,50000;6,16672;1529,26678;0,03892
93,00000;6,19999;1531,36617;0,03922
93,50000;6,23335;1533,02373;0,03951
94,00000;6,26666;1534,52149;0,03981
94,50000;6,30002;1535,44899;0,04010
95,00000;6,33335;1537,68007;0,04040
95,50000;6,36669;1538,46964;0,04070
96,00000;6,40005;1539,29060;0,04100
96,50000;6,43335;1541,17383;0,04130
97,00000;6,46663;1541,63754;0,04160
97,50000;6,50005;1543,12588;0,04191
98,00000;6,53335;1543,62731;0,04221
98,50000;6,56666;1544,35737;0,04251
99,00000;6,60002;1544,83048;0,04282
99,50000;6,63333;1546,00553;0,04313
100,00000;6,66666;1545,88018;0,04343
100,50000;6,70005;1545,86136;0,04374
101,00000;6,73333;1546,76381;0,04405
101,50000;6,76666;1547,94203;0,04436
102,00000;6,80002;1547,52526;0,04467
102,50000;6,83338;1548,25849;0,04498
103,00000;6,86666;1548,17076;0,04529
103,50000;6,90002;1548,10175;0,04561
104,00000;6,93335;1548,29295;0,04592
104,50000;6,96674;1547,83549;0,04624
105,00000;6,99996;1547,68191;0,04655
105,50001;7,03335;1547,98897;0,04687
106,00001;7,06669;1547,96392;0,04718
106,50001;7,10005;1547,62240;0,04750
107,00001;7,13333;1547,08661;0,04781
107,50001;7,16672;1546,67925;0,04813
108,00001;7,19999;1545,98365;0,04845
108,50001;7,23335;1545,64837;0,04877
109,00001;7,26666;1546,07762;0,04909
109,50001;7,30005;1544,83048;0,04941
110,00001;7,33332;1544,20072;0,04973
110,50001;7,36669;1543,59592;0,05005
111,00001;7,40002;1542,07936;0,05037
111,34801;7,42304;1542,43968;0,05059
111,84801;7,45643;1541,45584;0,05091
112,34801;7,48968;1540,99204;0,05123
112,84801;7,52310;1539,55072;0,05156
113,34801;7,55640;1538,74848;0,05188
113,84801;7,58974;1538,79235;0,05220
114,34801;7,62304;1537,65492;0,05252
114,84801;7,65643;1535,32056;0,05285
115,34801;7,68971;1535,29234;0,05317
115,84801;7,72307;1534,21760;0,05350
116,34801;7,75640;1533,56586;0,05382
116,84801;7,78971;1531,34111;0,05415
117,34801;7,82310;1531,05287;0,05448
117,84801;7,85640;1529,74622;0,05480
118,34801;7,88971;1528,48344;0,05512
118,84801;7,92310;1527,87240;0,05545
119,34801;7,95643;1526,14899;0,05578
119,84801;7,98971;1524,67946;0,05610
120,34801;8,02307;1523,85226;0,05643
120,84801;8,05643;1522,59888;0,05675
121,34801;8,08968;1520,61852;0,05708
121,84801;8,12310;1519,14265;0,05741
122,34801;8,15643;1518,57864;0,05774
122,84801;8,18968;1516,55134;0,05806
123,34801;8,22307;1515,91841;0,05839
123,84801;8,25646;1513,49315;0,05872
124,34801;8,28971;1512,83508;0,05905
124,84801;8,32310;1510,52577;0,05938
125,34801;8,35643;1509,90849;0,05970
125,84801;8,38976;1507,24510;0,06003
126,34801;8,42301;1507,26382;0,06036
126,84801;8,45643;1505,10492;0,06069
127,34801;8,48970;1502,97107;0,06102
127,84801;8,52310;1502,53549;0,06135
128,34801;8,55640;1501,21944;0,06167
128,84801;8,58973;1499,80634;0,06200
129,34801;8,62304;1497,54398;0,06233
129,84801;8,65643;1496,38774;0,06266
130,34801;8,68973;1495,41013;0,06299
130,84801;8,72307;1493,87782;0,06332
131,34801;8,75640;1491,27711;0,06365
131,84801;8,78973;1490,18979;0,06397
132,34801;8,82307;1488,13743;0,06430
132,84801;8,85640;1487,39479;0,06463
133,34801;8,88970;1485,18570;0,06495
133,84801;8,92309;1483,73498;0,06528
134,34801;8,95643;1482,56933;0,06562
134,84801;8,98968;1480,86473;0,06594
135,34801;9,02307;1478,78416;0,06627
135,84801;9,05643;1477,49009;0,06660
136,34801;9,08970;1475,94837;0,06692
136,84801;9,12309;1474,53835;0,06725
137,34801;9,15643;1473,30062;0,06758
137,84801;9,18970;1471,98467;0,06791
138,34801;9,22304;1469,37761;0,06824
138,84801;9,25648;1467,84848;0,06857
139,34801;9,28968;1466,09377;0,06890
139,84801;9,32307;1465,66452;0,06923
140,34801;9,35646;1463,10134;0,06956
140,84801;9,38976;1462,22403;0,06989
141,34801;9,42301;1459,88017;0,07021
141,84801;9,45643;1458,22577;0,07054
142,34801;9,48968;1457,42670;0,07087
142,84801;9,52309;1456,63088;0,07120
143,34801;9,55640;1453,78886;0,07153
143,84801;9,58973;1453,70737;0,07185
144,34801;9,62304;1451,17557;0,07218
144,84801;9,65646;1449,17639;0,07251
145,34801;9,68970;1448,55287;0,07283
145,84801;9,72307;1447,65675;0,07316
146,34801;9,75640;1445,79234;0,07349
146,84801;9,78973;1445,10921;0,07382
147,34801;9,82309;1442,46779;0,07415
147,84801;9,85643;1442,09489;0,07448
148,34801;9,88970;1439,33119;0,07480
148,84801;9,92309;1437,86473;0,07513
149,34801;9,95643;1436,96545;0,07546
149,84801;9,98968;1435,40185;0,07578
150,34801;10,02309;1433,13324;0,07611
150,84801;10,05643;1432,32169;0,07643
151,34801;10,08967;1429,83068;0,07676
151,84801;10,12309;1428,45511;0,07709
152,34801;10,15643;1427,40225;0,07741
152,84801;10,18968;1426,31177;0,07774
153,34801;10,22304;1424,89551;0,07806
153,84801;10,25646;1422,88385;0,07839
154,34801;10,28967;1422,42638;0,07871
154,84801;10,32307;1420,91289;0,07904
155,34801;10,35640;1419,85696;0,07937
155,84801;10,38976;1418,16176;0,07970
156,34801;10,42304;1416,45409;0,08002
156,84801;10,45643;1414,72444;0,08035
157,34801;10,48970;1414,70563;0,08067
157,84801;10,52307;1412,43702;0,08099
158,34801;10,55640;1411,36227;0,08132
158,84801;10,58973;1410,50685;0,08165
159,34801;10,62304;1409,06228;0,08197
159,84801;10,65643;1406,83753;0,08230
160,34801;10,68973;1405,66882;0,08262
160,84801;10,72306;1405,09224;0,08295
161,34801;10,75640;1403,58824;0,08327
161,84801;10,78970;1402,31606;0,08360
162,34801;10,82309;1401,27884;0,08393
162,84801;10,85643;1399,35492;0,08425
163,34801;10,88970;1398,72516;0,08457
163,84801;10,92306;1397,75379;0,08490
164,34801;10,95646;1395,85491;0,08523
164,84801;10,98970;1394,45737;0,08555
165,34801;11,02304;1394,36964;0,08587
165,84801;11,05643;1391,81279;0,08620
166,34801;11,08970;1391,27700;0,08652
166,84801;11,12306;1391,05767;0,08685
167,34801;11,15643;1388,83293;0,08717
167,84801;11,18973;1387,73620;0,08750
168,34801;11,22304;1386,75543;0,08782
168,84801;11,25648;1384,83467;0,08814
169,34801;11,28970;1383,81319;0,08846
169,84801;11,32309;1382,54724;0,08878
170,34801;11,35643;1381,40665;0,08911
170,84801;11,38976;1380,54816;0,08943
171,34801;11,42304;1379,56114;0,08976
171,84801;11,45643;1377,81268;0,09008
172,34801;11,48967;1377,12331;0,09040
172,84801;11,52309;1376,23344;0,09072
173,34801;11,55640;1374,71994;0,09105
173,84801;11,58973;1374,17158;0,09137
174,34801;11,62303;1372,66442;0,09169
174,84801;11,65643;1371,03507;0,09202
175,34801;11,68970;1370,53682;0,09234
175,84801;11,72306;1369,77229;0,09266
176,34801;11,75640;1368,78528;0,09299
176,84801;11,78973;1367,85153;0,09330
177,34801;11,82309;1366,66708;0,09363
177,84801;11,85643;1365,21943;0,09395
178,34801;11,88970;1363,99427;0,09427
178,84801;11,92309;1363,49918;0,09460
179,34801;11,95645;1362,86933;0,09492
179,84801;11,98970;1361,21493;0,09524
180,34801;12,02306;1360,61953;0,09556
180,84801;12,05642;1360,18088;0,09588
181,34801;12,08967;1358,41984;0,09620
181,84801;12,12309;1357,26994;0,09653
182,34801;12,15643;1356,36432;0,09685
182,84801;12,18970;1355,51831;0,09717
183,34801;12,22303;1355,05460;0,09749
183,84801;12,25645;1353,19335;0,09781
184,34801;12,28970;1352,40993;0,09813
184,84801;12,32309;1352,07465;0,09846
185,34801;12,35642;1350,98426;0,09878
185,84801;12,38976;1349,82178;0,09910
186,34801;12,42303;1348,78457;0,09942
186,84801;12,45642;1348,25818;0,09974
187,34801;12,48970;1347,39652;0,10006
187,84801;12,52309;1346,50972;0,10038
188,34801;12,55640;1345,45686;0,10070
188,84801;12,58976;1344,42598;0,10102
189,34801;12,62303;1342,44571;0,10134
189,84801;12,65642;1342,52403;0,10166
190,34801;12,68973;1341,87229;0,10198
190,84801;12,72306;1340,48099;0,10230
191,34801;12,75640;1339,47833;0,10262
191,84801;12,78973;1339,72270;0,10294
192,34801;12,82306;1338,23752;0,10326
192,84801;12,85642;1337,33191;0,10358
193,34801;12,88970;1336,07853;0,10390
193,84801;12,92306;1335,67434;0,10422
194,34801;12,95645;1334,57137;0,10454
194,84801;12,98970;1333,18324;0,10486
195,34801;13,02303;1332,36544;0,10518
195,84801;13,05642;1332,14928;0,10550
196,34801;13,08970;1330,93661;0,10582
196,84801;13,12309;1330,48538;0,10614
197,34801;13,15645;1329,35420;0,10646
197,84801;13,18970;1329,03773;0,10678
198,34801;13,22306;1328,17915;0,10710
198,84801;13,25648;1326,60307;0,10742
199,34801;13,28967;1326,20828;0,10774
199,84801;13,32309;1325,86984;0,10806
200,34801;13,35645;1324,66033;0,10838
200,84801;13,38976;1324,16841;0,10870
201,34801;13,42300;1323,32863;0,10902
201,84801;13,45645;1322,64560;0,10935
202,34801;13,48967;1321,83088;0,10966
202,84801;13,52309;1321,35144;0,10998
203,34801;13,55639;1320,15450;0,11030
203,84801;13,58973;1320,30491;0,11062
204,34801;13,62303;1318,89796;0,11094
204,84801;13,65642;1318,59090;0,11126
205,34801;13,68973;1317,48794;0,11158
205,84801;13,72306;1316,23140;0,11190
206,34801;13,75639;1316,31605;0,11222
206,84801;13,78970;1314,89346;0,11254
207,34801;13,82312;1314,62086;0,11286
207,84801;13,85642;1313,89080;0,11318
208,34801;13,88970;1312,52455;0,11349
208,84801;13,92309;1311,87597;0,11381
209,34801;13,95645;1311,65348;0,11414
209,84801;13,98967;1310,63517;0,11445
210,34801;14,02306;1310,23722;0,11477
210,84801;14,05642;1309,06533;0,11509
211,34801;14,08970;1308,66421;0,11541
211,84801;14,12309;1307,40460;0,11573
212,34801;14,15642;1307,70542;0,11605
212,84801;14,18970;1306,25777;0,11637
213,34801;14,22303;1305,63416;0,11669
213,84801;14,25645;1305,17362;0,11701
214,34801;14,28970;1303,87638;0,11733
214,84801;14,32309;1303,73845;0,11764
215,34801;14,35639;1303,55675;0,11797
215,84801;14,38978;1302,91441;0,11828
216,34801;14,42303;1302,43497;0,11860
216,84801;14,45642;1301,93671;0,11892
217,34801;14,48970;1300,76800;0,11924
217,84801;14,52309;1300,19458;0,11956
218,34801;14,55639;1299,76217;0,11988
218,84801;14,58973;1299,14489;0,12020
219,34801;14,62303;1298,74693;0,12052
219,84801;14,65645;1297,41207;0,12084
220,34801;14,68973;1297,58753;0,12116
220,84801;14,72306;1296,89816;0,12148
221,34801;14,75639;1297,01411;0,12180
221,84801;14,78973;1295,94253;0,12212
222,34801;14,82306;1295,83599;0,12244
222,84801;14,85639;1294,29121;0,12276
223,34801;14,88970;1293,75849;0,12308
223,84801;14,92306;1293,28845;0,12340
224,34801;14,95642;1293,20072;0,12372
224,84801;14,98973;1292,30144;0,12404
225,34801;15,02306;1290,86319;0,12435
225,84801;15,05642;1290,24591;0,12467
226,34801;15,08970;1290,92587;0,12499
226,84801;15,12309;1289,66002;0,12531
227,34801;15,15642;1289,23068;0,12563
227,84801;15,18973;1287,99304;0,12595
228,34801;15,22303;1287,69530;0,12626
228,84801;15,25645;1286,85869;0,12658
229,34801;15,28967;1287,34121;0,12690
229,84801;15,32306;1285,71810;0,12722
230,34801;15,35645;1286,18497;0,12755
230,84801;15,38976;1284,57760;0,12787
231,34801;15,42303;1285,08834;0,12818
231,84801;15,45642;1282,94192;0,12850
232,34801;15,48970;1282,90746;0,12882
232,84801;15,52309;1282,44683;0,12914
233,34801;15,55639;1282,25572;0,12946
233,84801;15,58973;1281,82331;0,12978
234,34801;15,62303;1281,29683;0,13010
234,84801;15,65642;1280,44458;0,13042
235,34801;15,68970;1280,88323;0,13074
235,84801;15,72306;1279,94632;0,13106
236,34801;15,75642;1279,48578;0,13138
236,84801;15,78972;1278,53006;0,13170
237,34801;15,82312;1277,92843;0,13202
237,84801;15,85642;1277,06984;0,13234
238,34801;15,88970;1276,93824;0,13266
238,84801;15,92306;1276,60297;0,13298
239,34801;15,95645;1276,02015;0,13330
239,84801;15,98970;1275,18671;0,13362
240,34801;16,02309;1274,94540;0,13394
240,84801;16,05642;1274,28109;0,13426
241,34801;16,08967;1274,22158;0,13458
241,84801;16,12309;1273,78292;0,13490
242,34801;16,15639;1273,25337;0,13522
242,84801;16,18970;1272,20685;0,13554
243,34801;16,22306;1272,75204;0,13586
243,84801;16,25645;1271,04744;0,13618
244,34801;16,28967;1270,93466;0,13650
244,84801;16,32309;1271,06309;0,13682
245,34801;16,35642;1270,52106;0,13714
245,84801;16,38975;1269,56534;0,13746
246,34801;16,42303;1268,92608;0,13778
246,84801;16,45642;1268,50000;0,13810
247,34801;16,48970;1268,14898;0,13841
247,84801;16,52309;1267,98926;0,13874
248,34801;16,55642;1267,50665;0,13906
248,84801;16,58975;1266,51647;0,13938
249,34801;16,62303;1265,90859;0,13970
249,84801;16,65642;1265,91176;0,14002
250,34801;16,68975;1265,66738;0,14034
250,84801;16,72306;1265,64540;0,14066
251,34801;16,75639;1265,62351;0,14098
251,84801;16,78972;1264,11626;0,14130
252,34801;16,82308;1263,77791;0,14162
252,84801;16,85642;1263,97526;0,14194
253,34801;16,88970;1263,12301;0,14226
253,84801;16,92308;1262,90675;0,14258
254,34801;16,95642;1262,68743;0,14291
254,84801;16,98972;1261,99806;0,14322
255,34801;17,02306;1261,71922;0,14355
255,84801;17,05642;1260,75102;0,14387
256,34801;17,08969;1259,85797;0,14419
256,84801;17,12308;1259,49448;0,14451
257,34801;17,15642;1261,02986;0,14483
257,84801;17,18970;1260,21523;0,14515
258,34801;17,22303;1259,25010;0,14547
258,84801;17,25645;1258,21605;0,14580
259,34801;17,28969;1258,15654;0,14612
259,84801;17,32309;1257,88078;0,14644
260,34801;17,35645;1257,56431;0,14676
260,84801;17,38975;1257,68650;0,14709
261,34801;17,42303;1256,54284;0,14741
261,84801;17,45645;1256,17934;0,14773
262,34801;17,48967;1256,38926;0,14805
262,84801;17,52309;1256,37045;0,14837
263,34801;17,55642;1254,94786;0,14870
263,84801;17,58972;1254,95726;0,14902
264,34801;17,62306;1254,43088;0,14934
264,84801;17,65645;1254,10184;0,14966
265,34801;17,68972;1254,46534;0,14998
265,84801;17,72306;1253,99530;0,15031
266,34801;17,75639;1253,46575;0,15063
266,84801;17,78972;1253,19008;0,15095
267,34801;17,82311;1252,56963;0,15128
267,84801;17,85639;1252,18108;0,15160
268,34801;17,88969;1251,74243;0,15192
268,84801;17,92309;1252,06830;0,15225
269,34801;17,95645;1251,77689;0,15257
269,84801;17,98969;1251,11258;0,15289
270,34801;18,02309;1251,33824;0,15321
270,84801;18,05642;1250,23527;0,15354
271,34801;18,08967;1250,37935;0,15386
271,84801;18,12308;1249,41738;0,15418
272,34801;18,15642;1249,58344;0,15451
272,84801;18,18970;1248,87219;0,15483
273,34801;18,22306;1249,08527;0,15516
273,84801;18,25645;1248,13579;0,15548
274,34801;18,28969;1247,72219;0,15580
274,84801;18,32308;1248,24867;0,15613
275,34801;18,35642;1248,07945;0,15645
275,84801;18,38978;1247,11748;0,15678
276,34801;18,42303;1247,29294;0,15710
276,84801;18,45642;1246,66002;0,15743
277,34801;18,48969;1246,73210;0,15775
277,84801;18,52308;1247,07669;0,15808
278,34801;18,55639;1246,75399;0,15841
278,84801;18,58975;1245,12771;0,15873
279,34801;18,62303;1245,45675;0,15905
279,84801;18,65642;1244,62638;0,15938
280,34801;18,68975;1244,89274;0,15970
280,84801;18,72306;1245,16217;0,16003
281,34801;18,75642;1245,17158;0,16035
281,84801;18,78972;1244,45716;0,16068
282,34801;18,82308;1243,88691;0,16100
282,84801;18,85642;1243,40439;0,16133
283,34801;18,88969;1243,46390;0,16165
283,84801;18,92308;1243,19755;0,16197
284,34801;18,95645;1242,45808;0,16230
284,84801;18,98969;1241,91595;0,16263
285,34801;19,02305;1242,44867;0,16295
285,84801;19,05642;1242,13221;0,16328
286,34801;19,08972;1241,15767;0,16360
286,84801;19,12308;1240,59990;0,16393
287,34801;19,15642;1241,51492;0,16426
287,84801;19,18969;1241,03231;0,16458
288,34801;19,22306;1241,15767;0,16491
288,84801;19,25647;1240,17689;0,16524
289,34801;19,28969;1239,96390;0,16556
289,84801;19,32305;1240,24590;0,16589
290,34801;19,35644;1239,25880;0,16621
290,84801;19,38975;1239,52208;0,16654
291,34801;19,42303;1239,11155;0,16687
291,84801;19,45644;1238,73241;0,16720
292,34801;19,48969;1238,50992;0,16752
292,84801;19,52308;1238,46298;0,16785
293,34801;19,55642;1238,46922;0,16818
293,84801;19,58972;1238,91728;0,16851
294,34801;19,62305;1238,13078;0,16883
294,84801;19,65644;1236,99959;0,16916
295,34801;19,68972;1237,01841;0,16949
295,84801;19,72305;1237,28476;0,16982
296,34801;19,75639;1237,39447;0,17015
296,84801;19,78972;1236,91820;0,17048
297,34801;19,82311;1236,93701;0,17080
297,84801;19,85642;1236,35419;0,17113
298,34801;19,88969;1236,75521;0,17146
298,84801;19,92308;1236,06902;0,17179
299,34801;19,95644;1235,75879;0,17212
299,84801;19,98969;1236,34478;0,17245
300,34801;20,02308;1234,83753;0,17278
300,84801;20,05641;1235,07883;0,17311
301,34801;20,08969;1234,67781;0,17344
301,84801;20,12308;1234,76554;0,17377
302,34801;20,15639;1234,43333;0,17409
302,84801;20,18969;1234,54612;0,17442
303,34801;20,22305;1234,50542;0,17475
303,84801;20,25647;1234,18272;0,17508
304,34801;20,28966;1232,43425;0,17541
304,84801;20,32308;1233,81922;0,17574
305,34801;20,35641;1233,81922;0,17607
305,84801;20,38975;1232,81647;0,17640
306,34801;20,42303;1232,55961;0,17673
306,84801;20,45644;1232,99509;0,17707
307,34801;20,48969;1231,42526;0,17739
307,84801;20,52308;1232,91053;0,17773
308,34801;20,55641;1232,28068;0,17806
308,84801;20,58975;1232,08640;0,17839
309,34801;20,62302;1231,49734;0,17872
309,84801;20,65641;1231,73231;0,17905
310,34801;20,68975;1231,43150;0,17938
310,84801;20,72305;1231,08057;0,17971
311,34801;20,75639;1230,95214;0,18004
311,84801;20,78972;1230,93333;0,18037
312,34801;20,82308;1231,11196;0,18071
312,84801;20,85641;1231,64775;0,18104
313,34801;20,88969;1229,79591;0,18137
313,84801;20,92308;1231,13384;0,18171
314,34801;20,95644;1230,54478;0,18204
314,84801;20,98969;1230,69203;0,18237
315,34801;21,02308;1230,40061;0,18270
315,84802;21,05644;1229,65490;0,18304
316,34802;21,08969;1229,75204;0,18337
316,84802;21,12308;1229,51074;0,18370
317,34802;21,15644;1228,82770;0,18404
317,84802;21,18972;1229,15357;0,18437
318,34802;21,22302;1228,91227;0,18470
318,84802;21,25650;1228,63343;0,18504
319,34802;21,28969;1228,38588;0,18537
319,84802;21,32308;1228,00674;0,18570
320,34802;21,35644;1228,10071;0,18604
320,84802;21,38975;1228,06933;0,18637
321,34802;21,42302;1227,97219;0,18670
321,84802;21,45644;1227,19826;0,18704
322,34802;21,48966;1227,53354;0,18737
322,84802;21,52308;1227,17321;0,18770
323,34802;21,55642;1227,58998;0,18804
323,84802;21,58972;1227,12310;0,18837
324,34802;21,62305;1226,97577;0,18871
324,84802;21,65644;1226,49949;0,18905
325,34802;21,68972;1226,99458;0,18938
325,84802;21,72308;1226,81288;0,18971
326,34802;21,75639;1226,34908;0,19005
326,84802;21,78972;1226,01381;0,19038
327,34802;21,82311;1226,24571;0,19072
327,84802;21,85641;1225,97935;0,19106
328,34802;21,88969;1225,48742;0,19139
328,84802;21,92308;1225,94181;0,19173
329,34802;21,95644;1225,34018;0,19207
329,84802;21,98969;1224,41892;0,19240
330,34802;22,02305;1225,40286;0,19274
330,84802;22,05641;1225,12709;0,19308
331,34802;22,08972;1225,16472;0,19341
331,84802;22,12308;1224,63824;0,19375
332,34802;22,15639;1224,76984;0,19409
332,84802;22,18969;1224,92965;0,19442
333,34802;22,22308;1224,50357;0,19476
333,84802;22,25644;1224,32495;0,19510
334,34802;22,28966;1224,14315;0,19544
334,84802;22,32308;1224,30930;0,19578
335,34802;22,35641;1224,74171;0,19612
335,84802;22,38975;1224,23721;0,19645
336,34802;22,42302;1223,83926;0,19679
336,84802;22,45641;1224,17454;0,19713
337,34802;22,48969;1223,94580;0,19747
337,84802;22,52308;1223,41933;0,19781
338,34802;22,55641;1224,29673;0,19815
338,84802;22,58972;1224,06175;0,19848
339,34802;22,62302;1223,40061;0,19882
339,84802;22,65644;1222,51064;0,19916
340,34802;22,68975;1223,23763;0,19950
340,84802;22,72305;1222,44805;0,19984
341,34802;22,75641;1222,88046;0,20018
341,84802;22,78975;1223,62301;0,20052
342,34802;22,82305;1222,82719;0,20086
342,84802;22,85641;1222,79264;0,20120
343,34802;22,88969;1222,06258;0,20154
343,84802;22,92308;1222,97760;0,20188
344,34802;22,95644;1222,57648;0,20222
344,84802;22,98969;1222,35715;0,20256
345,34802;23,02305;1221,91217;0,20290
345,84802;23,05641;1222,26002;0,20324
346,34802;23,08969;1221,80255;0,20358
346,84802;23,12308;1221,81503;0,20393
347,34802;23,15641;1222,59213;0,20427
347,84802;23,18969;1222,07515;0,20461
348,34802;23,22302;1221,61135;0,20495
348,84802;23,25650;1221,65838;0,20530
349,34802;23,28969;1221,18834;0,20564
349,84802;23,32305;1222,26002;0,20598
350,34802;23,35644;1221,62076;0,20633
350,84802;23,38975;1221,57382;0,20667
351,34802;23,42302;1222,18793;0,20701
351,84802;23,45644;1221,10685;0,20735
352,34802;23,48969;1221,58322;0,20769
352,84802;23,52308;1221,16329;0,20804
353,34802;23,55641;1221,44530;0,20839
353,84802;23,58972;1220,96585;0,20873
354,34802;23,62305;1221,44530;0,20907
354,84802;23,65644;1220,04468;0,20942
355,34802;23,68969;1220,64315;0,20976
355,84802;23,72305;1220,48333;0,21010
356,34802;23,75641;1220,42382;0,21045
356,84802;23,78972;1221,11943;0,21079
357,34802;23,82308;1219,65613;0,21114
357,84802;23,85641;1220,02903;0,21148
358,34802;23,88971;1219,75951;0,21183
358,84802;23,92308;1220,86247;0,21217
359,34802;23,95641;1220,28599;0,21252
359,84802;23,98972;1220,19816;0,21286
360,34802;24,02308;1219,59969;0,21321
360,84802;24,05641;1220,36431;0,21355
361,34802;24,08969;1219,66861;0,21390
361,84802;24,12311;1219,25194;0,21425
362,34802;24,15638;1219,44305;0,21460
362,84802;24,18966;1219,94754;0,21494
363,34802;24,22308;1219,03569;0,21529
363,84802;24,25647;1219,40235;0,21564
364,34802;24,28966;1219,21115;0,21598
364,84802;24,32308;1219,90051;0,21633
365,34802;24,35644;1219,59029;0,21668
365,84802;24,38977;1220,43323;0,21703
366,34802;24,42302;1219,39601;0,21738
366,84802;24,45641;1218,72863;0,21773
367,34802;24,48969;1219,16421;0,21807
367,84802;24,52308;1219,34908;0,21842
368,34802;24,55635;1219,69683;0,21877
368,84802;24,58974;1218,35265;0,21912
369,34802;24,62305;1219,47126;0,21947
369,84802;24,65641;1219,62791;0,21982
370,34802;24,68971;1219,77516;0,22015
370,84802;24,72308;1218,78814;0,22050
371,34802;24,75638;1219,27075;0,22085
371,84802;24,78971;1219,45245;0,22120
372,34802;24,82308;1220,48957;0,22155
372,84802;24,85641;1218,65347;0,22190
373,34802;24,88969;1218,81953;0,22225
373,84802;24,92305;1219,70000;0,22260
374,34802;24,95644;1219,53078;0,22296
374,84802;24,98971;1219,85041;0,22331
375,34802;25,02305;1219,17985;0,22366
375,84802;25,05641;1219,60603;0,22401
376,34802;25,08968;1219,04202;0,22436
376,84802;25,12308;1218,67219;0,22471
377,34802;25,15641;1218,59079;0,22506
377,84802;25,18969;1218,20224;0,22541
378,34802;25,22307;1219,02321;0,22576
378,84802;25,25650;1218,32751;0,22611
379,34802;25,28966;1218,41533;0,22646
379,84802;25,32308;1219,30828;0,22682
380,34802;25,35644;1218,67536;0,22717
380,84802;25,38974;1219,10777;0,22752
381,34802;25,42302;1219,10153;0,22787
381,84802;25,45644;1218,68160;0,22823
382,34802;25,48966;1218,50930;0,22858
382,84802;25,52310;1219,13282;0,22893
383,34802;25,55641;1218,75368;0,22928
383,84802;25,58972;1218,92914;0,22964
384,34802;25,62302;1218,90092;0,22999
384,84802;25,65644;1218,87904;0,23034
385,34802;25,68971;1218,93231;0,23069
385,84802;25,72305;1218,30562;0,23105
386,34802;25,75638;1219,21431;0,23140
386,84802;25,78971;1218,90726;0,23176
387,34802;25,82310;1218,98241;0,23212
387,84802;25,85641;1218,78814;0,23247
388,34802;25,88968;1219,06390;0,23283
388,84802;25,92308;1218,73179;0,23319
389,34802;25,95647;1219,18609;0,23354
389,84802;25,98971;1219,07331;0,23390
390,34802;26,02308;1218,41216;0,23425
390,84802;26,05641;1218,18967;0,23461
391,34802;26,08966;1218,49366;0,23496
391,84802;26,12310;1218,19284;0,23533
392,34802;26,15644;1218,51247;0,23569
392,84802;26,18971;1219,51830;0,23604
393,34802;26,22302;1218,57822;0,23640
393,84802;26,25647;1218,33384;0,23676
394,34802;26,28969;1218,54693;0,23711
394,84802;26,32308;1218,28364;0,23747
395,34802;26,35641;1218,30562;0,23783
395,84802;26,38977;1217,52536;0,23817
396,34802;26,42302;1218,59387;0,23853
396,84802;26,45644;1217,79172;0,23889
397,34802;26,48969;1218,69100;0,23925
397,84802;26,52307;1218,12075;0,23961
398,34802;26,55644;1219,09212;0,23996
398,84802;26,58974;1217,81677;0,24032
399,34802;26,62302;1219,03261;0,24068
399,84802;26,65644;1217,78231;0,24104
400,34802;26,68977;1219,02628;0,24140
400,84802;26,72305;1218,10511;0,24175
401,34802;26,75638;1218,90092;0,24212
401,84802;26,78971;1218,31503;0,24248
402,34802;26,82310;1218,63149;0,24284
402,84802;26,85641;1218,81636;0,24321
403,34802;26,88965;1218,59703;0,24357
403,84802;26,92310;1218,86963;0,24393
404,34802;26,95644;1218,31186;0,24430
404,84802;26,98968;1219,19867;0,24466
405,34802;27,02302;1217,90450;0,24503
405,84802;27,05644;1217,95470;0,24539
406,34802;27,08969;1218,49990;0,24575
406,84802;27,12307;1218,70358;0,24611
407,34802;27,15641;1218,76625;0,24648
407,84802;27,18971;1218,88220;0,24684
408,34802;27,22305;1219,07331;0,24719
408,84802;27,25646;1218,71298;0,24756
409,34802;27,28966;1218,34008;0,24792
409,84802;27,32307;1219,15163;0,24828
410,34802;27,35644;1218,76625;0,24865
410,84802;27,38974;1218,88220;0,24901
411,34802;27,42302;1218,96993;0,24937
411,84802;27,45644;1218,19908;0,24974
412,34802;27,48966;1218,49673;0,25010
412,84802;27,52307;1218,92607;0,25047
413,34802;27,55641;1218,85706;0,25083
413,84802;27,58974;1219,30521;0,25120
414,34802;27,62305;1219,22372;0,25156
414,84802;27,65644;1219,02004;0,25193
415,34802;27,68971;1219,07331;0,25229
415,84802;27,72307;1219,57464;0,25266
416,34802;27,75641;1219,13599;0,25302
416,84802;27,78971;1219,34908;0,25339
417,34802;27,82310;1218,83200;0,25376
417,84802;27,85641;1219,34908;0,25413
418,34802;27,88968;1218,88528;0,25449
418,84802;27,92307;1219,02945;0,25486
419,34802;27,95644;1218,93855;0,25523
419,84802;27,98968;1218,15205;0,25560
420,34802;28,02304;1219,24561;0,25597
420,84802;28,05643;1218,22730;0,25633
421,34802;28,08968;1219,00439;0,25670
421,84802;28,12307;1218,94488;0,25707
422,34802;28,15641;1219,90684;0,25743
422,84802;28,18968;1219,70624;0,25780
423,34802;28,22304;1219,57464;0,25817
423,84802;28,25643;1219,17361;0,25855
424,34802;28,28968;1220,37679;0,25892
424,84802;28,32307;1219,69376;0,25930
425,34802;28,35638;1219,58721;0,25967
425,84802;28,38977;1219,78456;0,26005
426,34802;28,42304;1220,46452;0,26042
426,84802;28,45640;1219,60910;0,26080
427,34802;28,48968;1219,90684;0,26117
427,84802;28,52310;1219,83476;0,26155
428,34802;28,55641;1220,46769;0,26193
428,84802;28,58974;1220,27341;0,26230
429,34802;28,62301;1220,58988;0,26267
429,84802;28,65644;1220,64939;0,26305
430,34802;28,68974;1220,57423;0,26342
430,84802;28,72304;1220,96902;0,26378
431,34802;28,75640;1220,67453;0,26415
431,84802;28,78974;1220,84366;0,26450
432,34802;28,82307;1221,21656;0,26486
432,84802;28,85641;1220,93456;0,26522
433,34802;28,88968;1220,93773;0,26559
433,84802;28,92304;1221,77433;0,26597
434,34802;28,95644;1221,15705;0,26635
434,84802;28,98968;1221,67720;0,26672
435,34802;29,02304;1221,16012;0,26709
435,84802;29,05643;1221,29805;0,26748
436,34802;29,08968;1221,34509;0,26786
436,84802;29,12307;1220,71523;0,26825
437,34802;29,15641;1221,62709;0,26864
437,84802;29,18971;1221,77750;0,26903
438,34802;29,22301;1222,01564;0,26941
438,84802;29,25646;1221,52679;0,26979
439,34802;29,28968;1222,06258;0,27016
439,84802;29,32307;1222,31329;0,27054
440,34802;29,35641;1222,72065;0,27093
440,84802;29,38974;1222,38845;0,27132
441,34802;29,42301;1222,83967;0,27170
441,84802;29,45646;1221,98109;0,27207
442,34802;29,48965;1222,73937;0,27245
442,84802;29,52310;1222,58905;0,27282
443,34802;29,55643;1223,22822;0,27320
443,84802;29,58974;1222,41983;0,27359
444,34802;29,62301;1222,55767;0,27396
444,84802;29,65646;1223,00889;0,27434
445,34802;29,68971;1223,15614;0,27472
445,84802;29,72304;1223,30347;0,27510
446,34802;29,75638;1223,65439;0,27549
446,84802;29,78974;1224,10562;0,27587
447,34802;29,82313;1223,48201;0,27625
447,84802;29,85641;1224,22464;0,27664
448,34802;29,88965;1224,27791;0,27703
448,84802;29,92307;1223,73896;0,27741
449,34802;29,95646;1223,91135;0,27778
449,84802;29,98968;1224,97045;0,27817
450,34802;30,02304;1225,04244;0,27855
450,84802;30,05643;1224,37188;0,27892
451,34802;30,08971;1224,92341;0,27930
451,84802;30,12307;1224,71033;0,27968
452,34802;30,15638;1224,39386;0,28007
452,84802;30,18974;1225,02372;0,28045
453,34802;30,22307;1224,87955;0,28084
453,84802;30,25643;1224,47219;0,28121
454,34802;30,28965;1224,72290;0,28159
454,84802;30,32310;1224,49100;0,28198
455,34802;30,35640;1226,12668;0,28232
455,84802;30,38974;1225,14591;0,28270
456,34802;30,42301;1225,44672;0,28311
456,84802;30,45646;1225,35266;0,28348
457,34802;30,48968;1225,20858;0,28387
457,84802;30,52307;1225,93548;0,28427
458,34802;30,55643;1225,70368;0,28465
458,84802;30,58974;1226,31155;0,28502
459,34802;30,62302;1225,85716;0,28541
459,84802;30,65640;1226,17995;0,28580
460,34802;30,68977;1226,09222;0,28617
460,84802;30,72304;1226,49642;0,28657
461,34802;30,75638;1226,98834;0,28696
461,84802;30,78974;1226,12352;0,28734
462,34802;30,82310;1226,94448;0,28773
462,84802;30,85640;1227,53354;0,28813
463,34802;30,88965;1226,63109;0,28846
463,84802;30,92310;1226,75961;0,28887
464,34802;30,95646;1226,72515;0,28927
464,84802;30,98968;1227,07291;0,28966
465,34802;31,02304;1227,19202;0,29005
465,84802;31,05646;1227,37372;0,29041
466,34802;31,08968;1227,35491;0,29080
466,84802;31,12307;1227,93773;0,29120
467,34802;31,15643;1227,97219;0,29152
467,84802;31,18971;1229,27884;0,29191
468,34802;31,22304;1228,15082;0,29231
468,84802;31,25643;1227,10736;0,29271
469,34802;31,28968;1228,23231;0,29310
469,84802;31,32307;1228,33885;0,29343
470,34802;31,35643;1228,24488;0,29382
470,84802;31,38974;1229,23497;0,29421
471,34802;31,42304;1228,98743;0,29460
471,84802;31,45646;1229,20368;0,29499
472,34802;31,48965;1229,11595;0,29530
472,84802;31,52304;1229,33211;0,29570
473,34802;31,55646;1228,67413;0,29612
473,84802;31,58971;1228,66156;0,29652
474,34802;31,62301;1229,16922;0,29685
474,84802;31,65646;1229,22556;0,29726
475,34802;31,68973;1229,65798;0,29766
475,84802;31,72307;1229,68312;0,29806
476,34802;31,75637;1229,11278;0,29847
476,84802;31,78976;1230,78609;0,29880
477,34802;31,82312;1229,90552;0,29922
477,84802;31,85637;1229,87423;0,29963
478,34802;31,88968;1229,28200;0,30003
478,84802;31,92310;1229,16605;0,30036
479,34802;31,95646;1229,62669;0,30078
479,84802;31,98970;1231,53180;0,30118
480,34802;32,02307;1230,18445;0,30161
480,84802;32,05643;1230,36308;0,30193
481,34802;32,08971;1230,85501;0,30234
481,84802;32,12307;1231,29049;0,30275
482,34802;32,15640;1231,23722;0,30316
482,84802;32,18970;1230,93333;0,30345
483,34802;32,22304;1230,93957;0,30385
483,84802;32,25643;1230,99284;0,30424
484,34802;32,28968;1231,03987;0,30464
484,84802;32,32307;1231,31871;0,30497
485,34802;32,35640;1231,24355;0,30539
485,84802;32,38976;1231,27801;0,30579
486,34802;32,42304;1231,27485;0,30617
486,84802;32,45640;1231,37198;0,30657
487,34802;32,48968;1231,62270;0,30697
487,84802;32,52307;1231,52556;0,30734
488,34802;32,55640;1231,50051;0,30772
488,84802;32,58973;1231,62270;0,30810
489,34802;32,62307;1232,27444;0,30847
489,84802;32,65643;1231,76994;0,30888
490,34802;32,68970;1231,37822;0,30925
490,84802;32,72306;1232,38405;0,30965
491,34802;32,75640;1232,29008;0,31003
491,84802;32,78973;1231,96421;0,31042
492,34802;32,82307;1232,65358;0,31081
492,84802;32,85640;1232,78517;0,31120
493,34802;32,88971;1232,45306;0,31157
493,84802;32,92307;1232,71309;0,31196
494,34802;32,95643;1233,60297;0,31179
494,84802;32,98970;1234,93467;0,31160
495,34802;33,02310;1236,67065;0,31143
495,84802;33,05643;1237,26912;0,31128
496,34802;33,08968;1237,25971;0,31115
496,84802;33,12309;1237,77362;0,31105
497,34802;33,15643;1238,11513;0,31097
497,84802;33,18970;1239,17423;0,31091
498,34802;33,22301;1239,39672;0,31086
498,84802;33,25649;1239,19621;0,31083
499,34802;33,28968;1239,87924;0,31081
499,84802;33,32306;1239,86360;0,31082
500,34802;33,35640;1239,92627;0,31085
500,84802;33,38976;1239,57843;0,31090
501,34802;33,42301;1240,04222;0,31096
501,84802;33,45643;1239,42494;0,31100
502,34802;33,48967;1238,97996;0,31102
502,84802;33,52309;1239,68180;0,31105
503,34802;33,55640;1239,79775;0,31109
503,84802;33,58971;1239,70378;0,31116
504,34802;33,62304;1239,00501;0,31119
504,84802;33,65643;1238,64785;0,31122
505,34802;33,68970;1239,31207;0,31124
505,84802;33,72307;1238,82955;0,31127
506,34802;33,75640;1238,06810;0,31130
506,84802;33,78971;1238,24049;0,31131
507,34802;33,82312;1237,20961;0,31133
507,84802;33,85640;1236,85859;0,31146
508,34802;33,88967;1235,68987;0,31155
508,84802;33,92307;1236,82730;0,31155
509,34802;33,95646;1236,46697;0,31153
509,84802;33,98970;1237,07801;0,31154
510,34802;34,02306;1236,66124;0,31157
510,84802;34,05640;1236,26012;0,31157
511,34802;34,08970;1236,41994;0,31155
511,84802;34,12309;1236,71759;0,31155
512,34802;34,15640;1237,16574;0,31154
512,84802;34,18970;1237,33487;0,31152
513,34802;34,22306;1237,37874;0,31151
513,84802;34,25643;1236,62679;0,31150
514,34802;34,28965;1236,91503;0,31149
514,84802;34,32309;1237,82689;0,31147
515,34802;34,35643;1237,55736;0,31146
515,84802;34,38973;1237,60756;0,31146
516,34802;34,42301;1237,29100;0,31145
516,84802;34,45643;1237,13436;0,31144
517,34802;34,48968;1238,26237;0,31144
517,84802;34,52309;1238,35951;0,31145
518,34802;34,55640;1238,69171;0,31144
518,84802;34,58973;1239,03640;0,31142
519,34802;34,62304;1238,30624;0,31142
519,84802;34,65643;1237,68272;0,31143
520,34802;34,68976;1238,16216;0,31143
520,84802;34,72304;1238,71677;0,31142
521,34802;34,75640;1239,30266;0,31140
521,84802;34,78973;1239,23691;0,31140
522,34802;34,82309;1239,05828;0,31139
522,84802;34,85640;1240,25838;0,31137
523,34802;34,88970;1239,01125;0,31138
523,84802;34,92303;1240,06104;0,31139
524,34802;34,95643;1238,96739;0,31138
524,84802;34,98970;1240,01084;0,31136
525,34802;35,02306;1239,68180;0,31136
525,84802;35,05643;1240,33047;0,31138
526,34803;35,08970;1240,01084;0,31138
526,84803;35,12309;1240,27720;0,31137
527,34803;35,15643;1240,46523;0,31136
527,84803;35,18973;1240,44018;0,31136
528,34803;35,22304;1241,01359;0,31136
528,84803;35,25648;1240,04846;0,31135
529,34803;35,28965;1240,65634;0,31134
529,84803;35,32309;1240,71278;0,31134
530,34803;35,35645;1240,29601;0,31134
530,84803;35,38973;1241,36135;0,31133
531,34803;35,42301;1241,80941;0,31132
531,84803;35,45645;1241,03231;0,31133
532,34803;35,48967;1241,49295;0,31135
532,84803;35,52306;1241,63087;0,31135
533,34803;35,55642;1242,32955;0,31133
533,84803;35,58973;1241,34887;0,31130
534,34803;35,62304;1242,54264;0,31130
534,84803;35,65643;1242,10082;0,31129
535,34803;35,68970;1242,35777;0,31128
535,84803;35,72307;1242,58650;0,31128
536,34803;35,75637;1242,63354;0,31130
536,84803;35,78973;1243,30092;0,31131
537,34803;35,82312;1243,18814;0,31131
537,84803;35,85640;1243,45766;0,31133
538,34803;35,88967;1243,15051;0,31137
538,84803;35,92309;1243,07852;0,31138
539,34803;35,95645;1243,31973;0,31137
539,84803;35,98967;1243,67066;0,31138
540,34803;36,02309;1243,81799;0,31138
540,84803;36,05642;1244,11564;0,31137
541,34803;36,08967;1243,81799;0,31135
541,84803;36,12306;1244,24407;0,31134
542,34803;36,15645;1244,76431;0,31134
542,84803;36,18967;1244,42587;0,31136
543,34803;36,22303;1243,81799;0,31136
543,84803;36,25648;1244,09059;0,31134
544,34803;36,28967;1244,34754;0,31131
544,84803;36,32309;1245,13088;0,31131
545,34803;36,35640;1244,87393;0,31133
545,84803;36,38976;1244,87393;0,31131
546,34803;36,42300;1245,06196;0,31130
546,84803;36,45643;1245,48497;0,31130
547,34803;36,48967;1246,17741;0,31130
547,84803;36,52309;1244,29110;0,31131
548,34803;36,55637;1245,81708;0,31132
548,84803;36,58973;1246,36227;0,31131
549,34803;36,62306;1245,76380;0,31131
549,84803;36,65645;1245,81400;0,31132
550,34803;36,68973;1246,52209;0,31131
550,84803;36,72303;1246,18998;0,31129
551,34803;36,75643;1247,61257;0,31128
551,84803;36,78973;1245,96125;0,31129
552,34803;36,82306;1246,86677;0,31130
552,84803;36,85639;1247,00777;0,31129
553,34803;36,88970;1247,88200;0,31128
553,84803;36,92306;1246,81983;0,31128
554,34803;36,95643;1247,43711;0,31129
554,84803;36,98970;1247,05480;0,31128
555,34803;37,02306;1247,35245;0,31128
555,84803;37,05642;1247,80992;0,31128
556,34803;37,08967;1247,33998;0,31127
556,84803;37,12312;1246,43752;0,31125
557,34803;37,15645;1246,67883;0,31122
557,84803;37,18967;1247,72219;0,31119
558,34803;37,22303;1247,61881;0,31117
558,84803;37,25648;1247,58435;0,31115
559,34803;37,28967;1248,33006;0,31114
559,84803;37,32306;1248,66851;0,31113
560,34803;37,35645;1248,67475;0,31115
560,84803;37,38976;1248,50869;0,31117
561,34803;37,42300;1249,43303;0,31119
561,84803;37,45640;1248,01677;0,31121
562,34803;37,48967;1248,71237;0,31121
562,84803;37,52312;1248,32066;0,31121
563,34803;37,55642;1249,24509;0,31122
563,84803;37,58970;1248,35521;0,31123
564,34803;37,62303;1249,29836;0,31124
564,84803;37,65645;1248,24867;0,31125
565,34803;37,68970;1249,23568;0,31125
565,84803;37,72306;1249,09151;0,31125
566,34803;37,75639;1249,30777;0,31126
566,84803;37,78973;1249,02884;0,31129
567,34803;37,82312;1248,73118;0,31130
567,84803;37,85640;1249,98773;0,31128
568,34803;37,88967;1249,45184;0,31126
568,84803;37,92309;1249,52393;0,31127
569,34803;37,95645;1248,95368;0,31128
569,84803;37,98967;1249,26073;0,31127
570,34803;38,02306;1249,71503;0,31125
570,84803;38,05642;1249,44244;0,31126
571,34803;38,08967;1249,24816;0,31129
571,84803;38,12309;1249,09468;0,31131
572,34803;38,15639;1249,81534;0,31131
572,84803;38,18967;1249,82474;0,31128
573,34803;38,22309;1250,60808;0,31126
573,84803;38,25648;1250,30419;0,31126
574,34803;38,28967;1250,99663;0,31124
574,84803;38,32306;1251,06871;0,31122
575,34803;38,35642;1251,37269;0,31121
575,84803;38,38976;1251,51677;0,31122
576,34803;38,42303;1251,51994;0,31124
576,84803;38,45640;1251,70797;0,31127
577,34803;38,48970;1251,33190;0,31128
577,84803;38,52309;1251,29120;0,31127
578,34803;38,55639;1251,35696;0,31127
578,84803;38,58973;1251,84897;0,31129
579,34803;38,62306;1252,25624;0,31127
579,84803;38,65642;1251,79570;0,31124
580,34803;38,68973;1251,84897;0,31122
580,84803;38,72303;1252,34090;0,31123
581,34803;38,75642;1252,21871;0,31124
581,84803;38,78973;1252,44427;0,31124
582,34803;38,82306;1252,84847;0,31124
582,84803;38,85639;1252,46933;0,31123
583,34803;38,88973;1252,58528;0,31122
583,84803;38,92306;1252,44427;0,31123
584,34803;38,95642;1253,12740;0,31125
584,84803;38,98970;1252,32209;0,31126
585,34803;39,02309;1252,93620;0,31125
585,84803;39,05642;1253,58170;0,31124
586,34803;39,08970;1252,99264;0,31124
586,84803;39,12309;1252,42863;0,31125
587,34803;39,15645;1253,43762;0,31125
587,84803;39,18967;1253,08037;0,31125
588,34803;39,22300;1253,34989;0,31124
588,84803;39,25648;1253,31534;0,31123
589,34803;39,28967;1253,12423;0,31124
589,84803;39,32306;1253,80103;0,31123
590,34803;39,35642;1253,71646;0,31124
590,84803;39,38976;1253,91074;0,31124
591,34803;39,42300;1253,52535;0,31125
591,84803;39,45642;1253,48773;0,31126
592,34803;39,48967;1253,96084;0,31127
592,84803;39,52309;1253,71963;0,31126
593,34803;39,55642;1254,90399;0,31124
593,84803;39,58970;1254,38385;0,31124
594,34803;39,62306;1254,37137;0,31123
594,84803;39,65645;1254,43088;0,31123
595,34803;39,68970;1254,62199;0,31124
595,84803;39,72303;1254,64397;0,31124
596,34803;39,75645;1255,29887;0,31124
596,84803;39,78972;1254,52802;0,31124
597,34803;39,82309;1254,84765;0,31124
597,84803;39,85639;1254,59386;0,31125
598,34803;39,88970;1254,24284;0,31126
598,84803;39,92309;1254,44029;0,31126
599,34803;39,95642;1254,96360;0,31124
599,84803;39,98970;1254,54366;0,31123
600,34803;40,02309;1254,52802;0,31122
600,84803;40,05642;1254,59069;0,31122
601,34803;40,08967;1254,30245;0,31121
601,84803;40,12306;1254,70972;0,31121
602,34803;40,15639;1255,40849;0,31122
602,84803;40,18970;1255,22362;0,31122
603,34803;40,22303;1255,07014;0,31122
603,84803;40,25642;1254,55623;0,31122
604,34803;40,28967;1254,91973;0,31122
604,84803;40,32309;1255,18600;0,31123
605,34803;40,35642;1254,91340;0,31123
605,84803;40,38972;1255,16411;0,31123
606,34803;40,42303;1255,35838;0,31122
606,84803;40,45645;1254,88834;0,31122
607,34803;40,48967;1255,29254;0,31123
607,84803;40,52306;1255,06381;0,31124
608,34803;40,55639;1254,59386;0,31124
608,84803;40,58975;1255,54008;0,31123
609,34803;40,62300;1255,22055;0,31121
609,84803;40,65639;1255,50255;0,31120
610,34803;40,68976;1255,21114;0,31121
610,84803;40,72306;1255,50879;0,31123
611,34803;40,75639;1254,14571;0,31123
611,84803;40,78970;1255,08578;0,31122
612,34803;40,82312;1254,71912;0,31121
612,84803;40,85639;1254,66585;0,31123
613,34803;40,88967;1252,56646;0,31132
613,84803;40,92306;1252,62607;0,31142
614,34803;40,95645;1251,01544;0,31162
614,84803;40,98970;1250,22586;0,31191
615,34803;41,02303;1250,35113;0,14172
615,84803;41,05645;1250,09734;0,11674
616,34803;41,08970;1249,43620;0,00064
616,84803;41,12306;1248,95675;0,00098
617,34803;41,15639;1250,09110;0,00129
617,84803;41,18973;1248,61207;0,00131
618,34803;41,22306;1248,58702;-0,00576
618,84803;41,25648;1247,64703;-0,00673
619,34803;41,28967;1248,02925;-0,00604
619,84803;41,32306;1248,46166;-0,00532
620,34803;41,35645;1248,16401;0,00176
620,84803;41,38973;1247,50286;0,01499
621,34803;41,42300;1247,03599;0,01799
621,84803;41,45645;1246,53466;0,01722
622,34803;41,48967;1246,82914;0,01732
622,84803;41,52306;1246,39990;0,01807
623,34803;41,55642;1245,91114;0,01941
623,84803;41,58973;1246,16176;0,01951
624,34803;41,62303;1245,89233;0,01966
624,84803;41,65645;1244,37260;0,02087
625,34803;41,68972;1244,71104;0,01503
625,84803;41,72306;1245,03998;0,01632
626,34803;41,75639;1244,32556;0,01693
626,84803;41,78972;1244,09059;0,01688
627,34803;41,82312;1242,65235;0,01694
627,84803;41,85639;1241,94417;0,01699
628,34803;41,88970;1240,92894;0,01590
628,84803;41,92309;1240,57485;-0,00048
629,34803;41,95642;1239,88548;-0,00026
629,84803;41,98967;1237,91769;0,00020
630,34803;42,02312;1237,29417;0,00027
630,84803;42,05642;1235,36708;0,00027
631,34803;42,08967;1234,48977;0,00027
631,84803;42,12311;1232,64734;0,00027
632,34803;42,15639;1231,18404;0,00027
632,84803;42,18969;1229,32587;0,00027
633,34803;42,22309;1228,10388;0,00027
633,84803;42,25647;1224,50665;0,00027
634,34803;42,28967;1222,44172;0,00026
634,84803;42,32309;1218,85398;0,00026
635,34803;42,35645;1215,05940;0,00026
635,84803;42,38975;1209,71063;0,00026
636,34803;42,42300;1202,25931;0,00026
636,84803;42,45645;1190,20818;0,00026
637,27803;42,48502;915,61982;0,00026
637,28603;42,48556;641,69895;0,00026