File: 02_Appendices/Appendix_C_Experimental_Data_and_Analysis Reports/C_1_Materials_Tests/C_1_1_Tensile_tests/C_1_1_2_Quanton Iron/Specimen_RawData_1.csv
Text Inputs : Specimen label;"1"
Dimension : Length;50,00000;mm
Dimension : Final length;100,00000;mm
Test : Rate 1;3,00000;mm/min
General : Unique Identifier;"{2AE97416-FF9F-4429-A10E-9744BE5EA52C}"

Time;Extension;Load;Strain 1
(sec);(mm);(N);(mm/mm)
0,00000;0,00000;9,06500;0,00007
0,80000;0,02638;19,57451;0,00019
1,60000;0,05328;36,63602;0,00040
2,40000;0,07994;52,12141;0,00060
3,20000;0,10672;64,17884;0,00077
4,00000;0,13333;65,32253;0,00082
4,80000;0,16003;65,30060;0,00086
5,60000;0,18667;66,22809;0,00089
6,40000;0,21336;66,62917;0,00092
7,20000;0,24000;67,46893;0,00095
8,00000;0,26664;67,24646;0,00096
8,80000;0,29333;68,13008;0,00097
9,60000;0,32003;68,73796;0,00098
10,40000;0,34667;69,15157;0,00099
11,20000;0,37328;70,77469;0,00100
12,00000;0,40011;70,80289;0,00102
12,80000;0,42664;72,49494;0,00103
13,60000;0,45342;77,43322;0,00108
14,40000;0,47991;85,76501;0,00118
15,20000;0,50667;97,48401;0,00133
16,00000;0,53339;111,13321;0,00150
16,80000;0,56000;124,07426;0,00168
17,60000;0,58667;136,61736;0,00186
18,40000;0,61333;149,92816;0,00203
19,20000;0,64000;162,53706;0,00220
20,00000;0,66667;172,80530;0,00238
20,80000;0,69336;186,35422;0,00257
21,60000;0,72000;199,91256;0,00277
22,40000;0,74664;212,42432;0,00296
23,20000;0,77328;225,00502;0,00316
24,00000;0,80003;237,09065;0,00335
24,80000;0,82669;248,69686;0,00354
25,60000;0,85336;261,76325;0,00373
26,40000;0,87997;272,97465;0,00391
27,20000;0,90667;283,65648;0,00410
28,00000;0,93336;295,21883;0,00429
28,80000;0,96008;306,04482;0,00447
29,60000;0,98661;316,85201;0,00466
30,40000;1,01333;328,64935;0,00484
31,20000;1,04000;338,99278;0,00502
32,00000;1,06667;349,63076;0,00521
32,80000;1,09333;360,69490;0,00539
33,60000;1,12003;370,92867;0,00557
34,40000;1,14669;381,98025;0,00576
35,20000;1,17325;391,97272;0,00594
36,00000;1,19997;402,25978;0,00612
36,80000;1,22667;412,14572;0,00630
37,60000;1,25345;423,24746;0,00648
38,40000;1,27991;433,17415;0,00667
39,20000;1,30669;443,56147;0,00686
40,00000;1,33333;454,32476;0,00705
40,80000;1,36003;464,44573;0,00723
41,60000;1,38667;475,85769;0,00742
42,40000;1,41330;484,36807;0,00760
43,20000;1,44000;494,27906;0,00778
44,00000;1,46664;503,89869;0,00797
44,80000;1,49327;513,42119;0,00814
45,60000;1,52003;521,86577;0,00831
46,40000;1,54669;530,43566;0,00849
47,20000;1,57325;539,72313;0,00865
48,00000;1,60003;548,20222;0,00883
48,80000;1,62664;556,34598;0,00899
49,60000;1,65336;565,44542;0,00917
50,40000;1,67997;573,56413;0,00933
51,20000;1,70661;581,89281;0,00950
52,00000;1,73336;590,57237;0,00967
52,80000;1,76003;598,43729;0,00984
53,60000;1,78666;608,38279;0,01001
54,40000;1,81336;615,07262;0,01017
55,20000;1,83994;622,84041;0,01034
56,00000;1,86666;630,70841;0,01051
56,80000;1,89333;639,56976;0,01068
57,60000;1,92003;647,82319;0,01085
58,40000;1,94669;654,55069;0,01101
59,20000;1,97327;663,19266;0,01118
60,00000;2,00000;670,35565;0,01135
60,80000;2,02669;678,49630;0,01152
61,60000;2,05336;686,98162;0,01168
62,40000;2,07994;693,44589;0,01185
63,20000;2,10675;701,68050;0,01202
64,00000;2,13330;709,52973;0,01218
64,80000;2,16003;716,70841;0,01235
65,60000;2,18664;724,78014;0,01252
66,40000;2,21336;731,72692;0,01269
67,20000;2,24000;739,33802;0,01286
68,00000;2,26664;746,02477;0,01303
68,80000;2,29333;754,03377;0,01320
69,60000;2,32000;761,98014;0,01337
70,40000;2,34664;767,87416;0,01354
71,20000;2,37327;776,44093;0,01371
72,00000;2,40008;783,55065;0,01388
72,80000;2,42666;791,13040;0,01406
73,60000;2,45339;798,13674;0,01423
74,40000;2,47991;803,84267;0,01440
75,20000;2,50666;811,67938;0,01457
76,00000;2,53339;819,51609;0,01474
76,80000;2,56000;825,69839;0,01491
77,60000;2,58666;833,58828;0,01509
78,40000;2,61333;840,09953;0,01526
79,20000;2,64000;847,09022;0,01543
80,00000;2,66669;853,26936;0,01561
80,80000;2,69333;860,60157;0,01578
81,60000;2,72000;867,20688;0,01596
82,40000;2,74664;873,95934;0,01613
83,20000;2,77327;881,13174;0,01631
84,00000;2,80005;888,55801;0,01649
84,80000;2,82669;893,60904;0,01667
85,60000;2,85336;901,30474;0,01685
86,40000;2,87997;907,65310;0,01703
87,20000;2,90666;913,88859;0,01721
88,00000;2,93333;920,01129;0,01739
88,80000;2,96008;927,12417;0,01757
89,60000;2,98661;932,73930;0,01774
90,40000;3,01333;939,19104;0,01793
91,20000;3,04000;945,59574;0,01811
92,00000;3,06666;951,53674;0,01828
92,80000;3,09333;957,70648;0,01846
93,60000;3,12002;963,73511;0,01864
94,40000;3,14669;969,42233;0,01882
95,20000;3,17324;975,38838;0,01900
96,00000;3,19997;981,23215;0,01918
96,80000;3,22666;985,96364;0,01936
97,60000;3,25342;993,12672;0,01955
98,40000;3,27991;998,56947;0,01973
99,20000;3,30669;1005,11201;0,01991
100,00000;3,33333;1010,31978;0,02010
100,80000;3,36002;1016,16671;0,02028
101,60000;3,38666;1021,80382;0,02046
102,40000;3,41327;1027,38133;0,02065
103,20000;3,44000;1032,88982;0,02084
104,00000;3,46666;1037,93470;0,02102
104,80000;3,49327;1043,94462;0,02121
105,60001;3,52002;1049,41241;0,02140
106,40001;3,54669;1054,18777;0,02159
107,20001;3,57324;1059,60853;0,02178
108,00001;3,60002;1065,03563;0,02197
108,80001;3,62663;1070,33430;0,02216
109,60001;3,65339;1075,36661;0,02236
110,40001;3,68000;1081,24483;0,02255
111,20001;3,70663;1085,24943;0,02274
112,00001;3,73336;1091,06507;0,02294
112,80001;3,76002;1095,69626;0,02313
113,60001;3,78666;1101,76252;0,02333
114,40001;3,81336;1106,46896;0,02353
115,20001;3,83994;1110,99677;0,02373
116,00001;3,86666;1114,95117;0,02392
116,80001;3,89333;1120,66967;0,02412
117,60001;3,92002;1124,89667;0,02432
118,40001;3,94669;1130,17336;0,02453
119,20001;3,97330;1134,05874;0,02473
120,00001;4,00002;1138,66804;0,02493
120,80001;4,02666;1143,10812;0,02514
121,60001;4,05336;1147,93675;0,02535
122,40001;4,07994;1152,31099;0,02555
123,20001;4,10675;1156,26222;0,02576
124,00001;4,13333;1160,42970;0,02597
124,80001;4,16002;1164,99504;0,02618
125,60001;4,18663;1169,67019;0,02639
126,40001;4,21336;1173,07622;0,02660
127,20001;4,24000;1177,03052;0,02681
128,00001;4,26666;1181,77142;0,02703
128,80001;4,29333;1185,70700;0,02724
129,60001;4,31999;1189,52356;0,02745
130,40001;4,34666;1193,66283;0,02767
131,20001;4,37327;1197,34453;0,02788
132,00001;4,40008;1200,84463;0,02810
132,80001;4,42663;1204,37285;0,02832
133,60001;4,45339;1208,15178;0,02854
134,40001;4,47994;1212,02152;0,02876
135,20001;4,50669;1215,31161;0,02899
136,00001;4,53338;1219,05608;0,02921
136,80001;4,55999;1222,16754;0,02943
137,60001;4,58669;1225,49525;0,02966
138,40001;4,61333;1229,49975;0,02988
139,20001;4,63997;1232,63951;0,03011
140,00001;4,66669;1235,14310;0,03034
140,80001;4,69336;1239,08492;0,03056
141,60001;4,72002;1241,70762;0,03080
142,40001;4,74666;1244,38666;0,03103
143,20001;4,77327;1247,16917;0,03126
144,00001;4,80005;1250,68799;0,03149
144,80001;4,82672;1252,50230;0,03173
145,60001;4,85336;1256,07122;0,03196
146,40001;4,87999;1258,62183;0,03219
147,20001;4,90663;1260,98758;0,03243
148,00001;4,93336;1263,84841;0,03266
148,80001;4,96008;1266,28308;0,03290
149,60001;4,98660;1268,83993;0,03314
150,40001;5,01333;1271,11794;0,03338
151,20001;5,03999;1273,48676;0,03362
152,00001;5,06666;1274,88747;0,03387
152,80001;5,09333;1277,45373;0,03411
153,60001;5,12002;1279,24290;0,03435
154,40001;5,14669;1281,65567;0,03459
155,20001;5,17324;1284,14985;0,03484
156,00001;5,19999;1285,54106;0,03508
156,80001;5,22666;1287,69064;0,03534
157,60001;5,25341;1289,66784;0,03559
158,40001;5,27991;1291,06529;0,03583
159,20001;5,30669;1292,62572;0,03609
160,00001;5,33333;1294,76590;0,03634
160,80001;5,36005;1296,40158;0,03659
161,60001;5,38666;1297,91182;0,03684
162,40001;5,41330;1299,54126;0,03710
163,20001;5,43999;1300,47817;0,03736
164,00001;5,46666;1301,52786;0,03761
164,80001;5,49327;1303,70874;0,03786
165,60001;5,52002;1305,06232;0,03813
166,40001;5,54669;1306,77009;0,03839
167,20001;5,57324;1307,08022;0,03865
168,00001;5,60002;1308,24586;0,03891
168,80001;5,62663;1309,85649;0,03917
169,60001;5,65338;1310,25128;0,03944
170,40001;5,67996;1311,76785;0,03970
171,20001;5,70663;1311,92449;0,03996
172,00001;5,73338;1313,73880;0,04023
172,80001;5,76002;1313,91743;0,04050
173,60001;5,78666;1314,68819;0,04077
174,40001;5,81336;1315,51856;0,04104
175,20001;5,83996;1316,11703;0,04131
176,00001;5,86666;1316,54944;0,04158
176,80001;5,89333;1318,02214;0,04185
177,60001;5,92002;1318,88073;0,04212
178,40001;5,94669;1318,36059;0,04240
179,20001;5,97330;1319,76120;0,04267
180,00001;6,00002;1319,71426;0,04294
180,80001;6,02666;1319,88339;0,04322
181,60001;6,05335;1321,28093;0,04350
182,40001;6,07994;1320,87357;0,04377
183,20001;6,10675;1321,24331;0,04406
184,00001;6,13333;1321,59432;0,04433
184,80001;6,16005;1321,76979;0,04461
185,60001;6,18666;1321,78226;0,04489
186,40001;6,21335;1321,25271;0,04517
187,20001;6,23999;1322,20844;0,04545
188,00001;6,26666;1322,07684;0,04574
188,80001;6,29333;1321,90762;0,04602
189,60001;6,32002;1321,92327;0,04630
190,40001;6,34666;1322,09565;0,04659
191,20001;6,37330;1322,31181;0,04687
192,00001;6,40008;1321,13677;0,04716
192,80001;6,42666;1321,17132;0,04744
193,60001;6,45338;1321,54105;0,04773
194,40001;6,47994;1320,79218;0,04802
195,20001;6,50669;1321,12429;0,04831
196,00001;6,53338;1320,96130;0,04859
196,80001;6,55999;1320,33462;0,04888
197,60001;6,58669;1320,29075;0,04917
198,40001;6,61333;1319,33512;0,04946
199,20001;6,63999;1318,99351;0,04975
200,00001;6,66666;1318,53297;0,05005
200,71401;6,69048;1318,62378;0,05031
201,51401;6,71706;1317,87490;0,05060
202,31401;6,74378;1317,71509;0,05090
203,11401;6,77031;1317,13860;0,05119
203,91401;6,79706;1317,18246;0,05148
204,71401;6,82375;1316,44923;0,05178
205,51401;6,85042;1316,20169;0,05207
206,31401;6,87709;1315,33053;0,05237
207,11401;6,90370;1314,43441;0,05267
207,91401;6,93036;1314,63185;0,05296
208,71401;6,95714;1313,00241;0,05326
209,51401;6,98370;1313,15282;0,05356
210,31401;7,01048;1311,60179;0,05386
211,11401;7,03703;1311,15681;0,05416
211,91401;7,06370;1310,78400;0,05446
212,71401;7,09036;1309,14515;0,05476
213,51401;7,11709;1308,58431;0,05506
214,31401;7,14375;1308,32419;0,05536
215,11401;7,17033;1307,33093;0,05566
215,91401;7,19700;1306,40343;0,05596
216,71401;7,22372;1305,80496;0,05627
217,51401;7,25050;1304,97143;0,05657
218,31401;7,27703;1304,38237;0,05687
219,11401;7,30372;1304,05650;0,05718
219,91401;7,33033;1303,42357;0,05748
220,71401;7,35714;1301,33042;0,05779
221,51401;7,38372;1301,41499;0,05809
222,31401;7,41045;1299,87337;0,05840
223,11401;7,43703;1299,10260;0,05870
223,91401;7,46370;1298,46651;0,05901
224,71401;7,49033;1297,48574;0,05932
225,51401;7,51709;1295,81243;0,05962
226,31401;7,54381;1295,95660;0,05993
227,11401;7,57030;1295,34556;0,06023
227,91401;7,59706;1293,97623;0,06054
228,71401;7,62372;1292,30302;0,06085
229,51401;7,65048;1292,46907;0,06115
230,31401;7,67711;1291,04340;0,06146
231,11401;7,70367;1289,97490;0,06177
231,91401;7,73039;1289,24483;0,06208
232,71401;7,75709;1288,35486;0,06239
233,51401;7,78372;1287,51826;0,06269
234,31401;7,81048;1285,78860;0,06300
235,11401;7,83703;1284,87991;0,06331
235,91401;7,86367;1284,24075;0,06362
236,71401;7,89039;1283,89606;0,06393
237,51401;7,91708;1282,62071;0,06425
238,31401;7,94378;1282,26038;0,06456
239,11401;7,97036;1280,61846;0,06487
239,91401;7,99703;1278,80424;0,06518
240,71401;8,02375;1278,75414;0,06549
241,51401;8,05045;1277,02132;0,06580
242,31401;8,07706;1276,98993;0,06611
243,11401;8,10378;1275,42643;0,06642
243,91401;8,13036;1274,55220;0,06674
244,71401;8,15711;1273,18287;0,06705
245,51401;8,18372;1272,79432;0,06736
246,31401;8,21050;1271,98901;0,06768
247,11401;8,23703;1270,30015;0,06799
247,91401;8,26369;1269,92725;0,06830
248,71401;8,29039;1269,12817;0,06861
249,51401;8,31708;1268,43890;0,06893
250,31401;8,34372;1267,75578;0,06924
251,11401;8,37033;1266,54943;0,06955
251,91401;8,39711;1264,98891;0,06987
252,71401;8,42369;1264,36539;0,07018
253,51401;8,45047;1263,58829;0,07050
254,31401;8,47706;1262,43839;0,07081
255,11401;8,50372;1261,65813;0,07113
255,91401;8,53039;1260,03502;0,07144
256,71401;8,55705;1259,17643;0,07175
257,51401;8,58372;1258,03277;0,07207
258,31401;8,61047;1257,50322;0,07238
259,11401;8,63703;1256,82009;0,07270
259,91401;8,66372;1255,82684;0,07301
260,71401;8,69039;1255,25966;0,07332
261,51401;8,71706;1253,83399;0,07364
262,31401;8,74378;1252,78430;0,07395
263,11401;8,77033;1251,65619;0,07427
263,91401;8,79706;1250,73502;0,07458
264,71401;8,82375;1250,89167;0,07490
265,51401;8,85042;1249,71038;0,07521
266,31401;8,87708;1248,14995;0,07553
267,11401;8,90372;1247,48247;0,07584
267,91401;8,93036;1246,88400;0,07616
268,71401;8,95714;1246,72111;0,07648
269,51401;8,98369;1245,22643;0,07679
270,31401;9,01047;1243,86651;0,07711
271,11401;9,03703;1243,01426;0,07742
271,91401;9,06372;1243,16774;0,07774
272,71401;9,09036;1241,51018;0,07805
273,51401;9,11711;1240,56386;0,07837
274,31401;9,14378;1239,69279;0,07869
275,11401;9,17033;1239,23216;0,07900
275,91401;9,19700;1237,87858;0,07932
276,71401;9,22372;1236,87899;0,07963
277,51401;9,25050;1236,34320;0,07995
278,31401;9,27705;1236,23349;0,08026
279,11401;9,30375;1234,94565;0,08058
279,91401;9,33033;1234,63860;0,08090
280,71401;9,35714;1233,85210;0,08122
281,51401;9,38372;1233,22858;0,08153
282,31401;9,41044;1231,07899;0,08185
283,11401;9,43703;1231,58973;0,08217
283,91401;9,46369;1231,73706;0,08248
284,71401;9,49036;1230,02622;0,08280
285,51401;9,51714;1229,27418;0,08312
286,31401;9,54381;1228,27152;0,08343
287,11401;9,57030;1227,95496;0,08374
287,91401;9,59705;1226,96171;0,08406
288,71401;9,62372;1226,66406;0,08438
289,51401;9,65047;1226,06559;0,08470
290,31401;9,67711;1224,77142;0,08502
291,11401;9,70369;1224,30772;0,08533
291,91401;9,73039;1223,71856;0,08565
292,71401;9,75708;1222,52787;0,08597
293,51401;9,78372;1222,76600;0,08629
294,31401;9,81047;1221,54402;0,08660
295,11401;9,83703;1221,13349;0,08692
295,91401;9,86366;1220,70424;0,08724
296,71401;9,89039;1219,71099;0,08756
297,51401;9,91711;1218,64248;0,08787
298,31401;9,94381;1219,25659;0,08819
299,11401;9,97036;1218,21631;0,08850
299,91401;9,99703;1216,89718;0,08882
300,71401;10,02372;1217,28256;0,08914
301,51401;10,05044;1215,43072;0,08946
302,31401;10,07708;1215,23952;0,08977
303,11401;10,10381;1215,62807;0,09009
303,91401;10,13036;1214,41232;0,09040
304,71401;10,15711;1212,97091;0,09072
305,51401;10,18372;1213,85772;0,09104
306,31401;10,21050;1211,64862;0,09135
307,11401;10,23703;1211,59228;0,09167
307,91401;10,26369;1211,79903;0,09199
308,71401;10,29039;1210,76498;0,09230
309,51401;10,31708;1210,19157;0,09262
310,31401;10,34372;1209,11058;0,09294
311,11401;10,37033;1209,73727;0,09326
311,91401;10,39714;1207,47807;0,09357
312,71401;10,42372;1207,08635;0,09389
313,51401;10,45047;1207,55639;0,09421
314,31401;10,47705;1205,74841;0,09452
315,11401;10,50372;1206,33123;0,09484
315,91402;10,53039;1205,02142;0,09516
316,71402;10,55705;1204,15036;0,09547
317,51402;10,58372;1203,71170;0,09579
318,31402;10,61044;1203,52367;0,09611
319,11402;10,63703;1202,27654;0,09642
319,91402;10,66369;1202,18880;0,09674
320,71402;10,69039;1201,62796;0,09706
321,51402;10,71705;1200,83205;0,09737
322,31402;10,74378;1200,86344;0,09769
323,11402;10,77033;1199,63195;0,09801
323,91402;10,79705;1198,81416;0,09832
324,71402;10,82375;1198,93951;0,09865
325,51402;10,85041;1198,76089;0,09896
326,31402;10,87711;1197,47305;0,09928
327,11402;10,90372;1197,11272;0,09960
327,91402;10,93039;1196,91845;0,09991
328,71402;10,95714;1195,83420;0,10023
329,51402;10,98369;1195,99402;0,10055
330,31402;11,01047;1194,38032;0,10086
331,11402;11,03702;1194,14218;0,10118
331,91402;11,06372;1193,92909;0,10150
332,71402;11,09036;1193,43093;0,10182
333,51402;11,11711;1192,75413;0,10214
334,31402;11,14378;1192,66631;0,10245
335,11402;11,17033;1192,38431;0,10277
335,91402;11,19697;1190,97121;0,10309
336,71402;11,22372;1190,22224;0,10340
337,51402;11,25050;1190,00608;0,10372
338,31402;11,27702;1189,02847;0,10404
339,11402;11,30372;1189,22275;0,10435
339,91402;11,33033;1188,03205;0,10467
340,71402;11,35714;1188,43308;0,10499
341,51402;11,38375;1188,65240;0,10530
342,31402;11,41044;1187,10455;0,10562
343,11402;11,43702;1186,97919;0,10594
343,91402;11,46372;1186,70035;0,10625
344,71402;11,49036;1185,51273;0,10657
345,51402;11,51711;1185,89820;0,10689
346,31402;11,54381;1184,59780;0,10720
347,11402;11,57027;1184,11211;0,10752
347,91402;11,59705;1184,25312;0,10783
348,71402;11,62372;1183,40710;0,10815
349,51402;11,65047;1183,36631;0,10847
350,31402;11,67711;1183,29432;0,10879
351,11402;11,70369;1182,00956;0,10910
351,91402;11,73041;1181,67428;0,10942
352,71402;11,75705;1181,79647;0,10973
353,51402;11,78372;1181,36406;0,11005
354,31402;11,81047;1180,15455;0,11037
355,11402;11,83702;1179,94156;0,11068
355,91402;11,86369;1179,82868;0,11100
356,71402;11,89038;1179,25527;0,11131
357,51402;11,91708;1178,94821;0,11163
358,31402;11,94380;1178,74769;0,11195
359,11402;11,97033;1177,82643;0,11226
359,91402;11,99702;1177,73246;0,11258
360,71402;12,02372;1177,23737;0,11290
361,51402;12,05041;1177,07439;0,11321
362,31402;12,07711;1177,23737;0,11353
363,11402;12,10380;1175,80853;0,11385
363,91402;12,13036;1176,22213;0,11416
364,71402;12,15708;1175,48890;0,11448
365,51402;12,18372;1174,51753;0,11479
366,31402;12,21050;1174,33891;0,11511
367,11402;12,23702;1174,06631;0,11543
367,91402;12,26369;1173,88144;0,11574
368,71402;12,29036;1173,54933;0,11606
369,51402;12,31708;1173,40833;0,11638
370,31402;12,34375;1173,46784;0,11669
371,11402;12,37033;1171,90741;0,11701
371,91402;12,39714;1172,70332;0,11733
372,71402;12,42369;1171,95128;0,11764
373,51402;12,45047;1171,93870;0,11796
374,31402;12,47705;1171,50005;0,11827
375,11402;12,50372;1171,16170;0,11859
375,91402;12,53038;1170,52868;0,11891
376,71402;12,55705;1170,06805;0,11922
377,51402;12,58375;1170,12765;0,11954
378,31402;12,61044;1169,56672;0,11985
379,11402;12,63702;1168,83982;0,12017
379,91402;12,66369;1168,96825;0,12048
380,71402;12,69038;1168,49197;0,12080
381,51402;12,71708;1168,56406;0,12111
382,31402;12,74377;1167,47674;0,12143
383,11402;12,77030;1166,36753;0,12175
383,91402;12,79708;1166,78430;0,12206
384,71402;12,82375;1166,48348;0,12238
385,51402;12,85044;1166,65894;0,12270
386,31402;12,87708;1165,51211;0,12301
387,11402;12,90369;1165,67817;0,12333
387,91402;12,93038;1164,82591;0,12364
388,71402;12,95714;1164,11773;0,12396
389,51402;12,98369;1164,42163;0,12427
390,31402;13,01044;1163,93287;0,12459
391,11402;13,03705;1164,38409;0,12491
391,91402;13,06372;1164,24933;0,12522
392,71402;13,09038;1163,49105;0,12554
393,51402;13,11708;1163,12131;0,12585
394,31402;13,14375;1163,32807;0,12617
395,11402;13,17033;1162,43819;0,12649
395,91402;13,19699;1161,81467;0,12680
396,71402;13,22372;1162,98338;0,12712
397,51402;13,25050;1161,97132;0,12743
398,31402;13,27705;1162,95526;0,12775
399,11402;13,30372;1160,87459;0,12806
399,91402;13,33036;1161,30076;0,12838
400,71402;13,35711;1160,66784;0,12870
401,51402;13,38372;1160,76181;0,12901
402,31402;13,41044;1161,50128;0,12933
403,11402;13,43705;1161,05005;0,12965
403,91402;13,46369;1160,35137;0,12996
404,71402;13,49033;1160,75557;0,13028
405,51402;13,51711;1160,38267;0,13059
406,31402;13,54383;1160,18839;0,13091
407,11402;13,57030;1159,31109;0,13122
407,91402;13,59705;1158,36477;0,13154
408,71402;13,62372;1157,98870;0,13185
409,51402;13,65047;1158,40547;0,13217
410,31402;13,67711;1158,83788;0,13249
411,11402;13,70369;1157,72244;0,13280
411,91402;13,73038;1157,90097;0,13311
412,71402;13,75708;1157,42162;0,13343
413,51402;13,78375;1158,09841;0,13374
414,31402;13,81047;1157,44667;0,13406
415,11402;13,83702;1156,44708;0,13437
415,91402;13,86366;1156,33113;0,13469
416,71402;13,89038;1156,48154;0,13500
417,51402;13,91711;1156,13379;0,13532
418,31402;13,94380;1155,07469;0,13563
419,11402;13,97033;1156,33113;0,13595
419,91402;13,99705;1155,26263;0,13626
420,71402;14,02375;1155,53215;0,13657
421,51402;14,05044;1155,33154;0,13689
422,31402;14,07708;1155,17490;0,13720
423,11402;14,10377;1154,21293;0,13752
423,91402;14,13035;1153,89647;0,13783
424,71402;14,15711;1153,97479;0,13815
425,51402;14,18372;1154,36027;0,13847
426,31402;14,21047;1153,65516;0,13878
427,11402;14,23705;1154,28185;0,13910
427,91402;14,26369;1152,78410;0,13941
428,71402;14,29038;1153,28543;0,13972
429,51402;14,31705;1152,89381;0,14004
430,31402;14,34372;1152,87500;0,14035
431,11402;14,37035;1152,42060;0,14067
431,91402;14,39713;1151,62786;0,14099
432,71402;14,42372;1152,16682;0,14130
433,51402;14,45047;1152,15117;0,14162
434,31402;14,47705;1151,58400;0,14193
435,11402;14,50372;1152,11979;0,14225
435,91402;14,53041;1151,38032;0,14256
436,71402;14,55708;1151,97878;0,14288
437,51402;14,58372;1150,63144;0,14319
438,31402;14,61047;1150,45598;0,14351
439,11402;14,63702;1150,08308;0,14382
439,91402;14,66371;1150,29300;0,14414
440,71402;14,69038;1150,76620;0,14446
441,51402;14,71705;1150,13951;0,14477
442,31402;14,74377;1149,37499;0,14509
443,11402;14,77032;1149,73839;0,14540
443,91402;14,79708;1149,63818;0,14572
444,71402;14,82374;1149,40312;0,14603
445,51402;14,85041;1149,12428;0,14635
446,31402;14,87711;1148,09647;0,14667
447,11402;14,90372;1148,55710;0,14698
447,91402;14,93038;1147,96180;0,14729
448,71402;14,95713;1146,91211;0,14761
449,51402;14,98372;1148,23123;0,14792
450,31402;15,01047;1147,04054;0,14824
451,11402;15,03702;1147,08757;0,14855
451,91402;15,06369;1147,04054;0,14887
452,71402;15,09038;1146,48910;0,14918
453,51402;15,11711;1146,90578;0,14950
454,31402;15,14377;1146,13185;0,14982
455,11402;15,17033;1145,96896;0,15013
455,91402;15,19699;1146,91211;0,15044
456,71402;15,22372;1146,79616;0,15076
457,51402;15,25050;1145,80914;0,15108
458,31402;15,27702;1145,87182;0,15139
459,11402;15,30372;1145,87182;0,15171
459,91402;15,33035;1144,38031;0,15202
460,71402;15,35713;1145,55219;0,15234
461,51402;15,38374;1145,04453;0,15265
462,31402;15,41041;1144,58390;0,15297
463,11402;15,43702;1144,93798;0,15328
463,91402;15,46371;1144,39595;0,15360
464,71402;15,49038;1144,29565;0,15391
465,51402;15,51710;1143,94473;0,15423
466,31402;15,54380;1143,97602;0,15455
467,11402;15,57032;1144,12336;0,15486
467,91402;15,59708;1143,60629;0,15517
468,71402;15,62371;1143,40894;0,15549
469,51402;15,65047;1143,23655;0,15580
470,31402;15,67708;1143,62203;0,15612
471,11402;15,70371;1143,03604;0,15643
471,91402;15,73041;1143,29923;0,15675
472,71402;15,75707;1142,81978;0,15706
473,51402;15,78371;1142,94207;0,15738
474,31402;15,81047;1142,56600;0,15770
475,11402;15,83705;1142,63808;0,15801
475,91402;15,86368;1142,42500;0,15832
476,71402;15,89038;1142,13051;0,15864
477,51402;15,91708;1141,68553;0,15896
478,31402;15,94380;1141,32827;0,15927
479,11402;15,97035;1142,47827;0,15959
479,91402;15,99705;1141,48185;0,15990
480,71402;16,02374;1141,61344;0,16022
481,51402;16,05041;1140,78000;0,16053
482,31402;16,07708;1141,00873;0,16085
483,11402;16,10380;1141,04943;0,16117
483,91402;16,13032;1140,78624;0,16148
484,71402;16,15710;1140,38829;0,16180
485,51402;16,18371;1140,35700;0,16211
486,31402;16,21047;1140,44780;0,16243
487,11402;16,23705;1140,41958;0,16274
487,91402;16,26368;1140,41334;0,16306
488,71402;16,29038;1139,91518;0,16337
489,51402;16,31710;1139,64248;0,16368
490,31402;16,34377;1140,49800;0,16400
491,11402;16,37032;1139,40751;0,16431
491,91402;16,39710;1139,09421;0,16462
492,71402;16,42371;1139,12867;0,16494
493,51402;16,45046;1139,70516;0,16526
494,31402;16,47705;1138,78082;0,16557
495,11402;16,50371;1139,27908;0,16588
495,91402;16,53041;1139,03461;0,16620
496,71402;16,55708;1138,97510;0,16651
497,51402;16,58374;1139,77725;0,16683
498,31402;16,61044;1138,27325;0,16714
499,11402;16,63702;1138,61794;0,16746
499,91402;16,66366;1138,68369;0,16777
500,71402;16,69041;1138,54269;0,16809
501,51402;16,71707;1139,12551;0,16840
502,31402;16,74377;1138,77142;0,16871
503,11402;16,77032;1138,76835;0,16903
503,91402;16,79708;1137,64340;0,16934
504,71402;16,82377;1137,91283;0,16966
505,51402;16,85041;1138,01314;0,16997
506,31402;16,87710;1137,42724;0,17029
507,11402;16,90368;1137,54626;0,17060
507,91402;16,93038;1137,46170;0,17092
508,71402;16,95713;1136,97601;0,17123
509,51402;16,98368;1137,65281;0,17154
510,31402;17,01044;1137,96927;0,17186
511,11402;17,03699;1136,59687;0,17217
511,91402;17,06374;1137,08256;0,17249
512,71402;17,09038;1137,39586;0,17280
513,51402;17,11710;1136,67827;0,17312
514,31402;17,14374;1137,61518;0,17343
515,11402;17,17032;1136,81927;0,17374
515,91402;17,19702;1136,86947;0,17406
516,71402;17,22371;1136,61569;0,17437
517,51402;17,25049;1136,86631;0,17469
518,31402;17,27702;1136,65015;0,17500
519,11402;17,30377;1136,76600;0,17532
519,91402;17,33035;1136,58113;0,17563
520,71402;17,35716;1136,56865;0,17595
521,51402;17,38371;1136,94463;0,17626
522,31402;17,41044;1136,29913;0,17658
523,11402;17,43704;1137,10128;0,17689
523,91402;17,46371;1136,46835;0,17721
524,71402;17,49035;1136,44013;0,17752
525,51402;17,51707;1136,18327;0,17784
526,31402;17,54383;1136,34933;0,17815
527,11403;17,57029;1136,12060;0,17846
527,91403;17,59707;1135,87612;0,17878
528,71403;17,62371;1136,13624;0,17909
529,51403;17,65047;1135,29963;0,17941
530,31403;17,67710;1135,62234;0,17972
531,11403;17,70368;1135,37163;0,18003
531,91403;17,73041;1135,67878;0,18035
532,71403;17,75707;1136,18951;0,18066
533,51403;17,78374;1135,20250;0,18097
534,31403;17,81046;1135,40925;0,18129
535,11403;17,83702;1135,29963;0,18160
535,91403;17,86368;1135,27142;0,18192
536,71403;17,89038;1135,65056;0,18223
537,51403;17,91710;1134,83276;0,18255
538,31403;17,94377;1135,28082;0,18286
539,11403;17,97035;1135,39984;0,18317
539,91403;17,99705;1134,89227;0,18349
540,71403;18,02374;1134,52561;0,18380
541,51403;18,05043;1135,08655;0,18412
542,31403;18,07704;1135,08338;0,18444
543,11403;18,10377;1133,95536;0,18475
543,91403;18,13035;1135,11160;0,18506
544,71403;18,15710;1134,44421;0,18538
545,51403;18,18371;1134,54759;0,18569
546,31403;18,21049;1134,39402;0,18600
547,11403;18,23702;1134,59770;0,18632
547,91403;18,26371;1134,20608;0,18663
548,71403;18,29038;1134,57888;0,18695
549,51403;18,31704;1134,05874;0,18726
550,31403;18,34377;1134,31569;0,18758
551,11403;18,37035;1134,14340;0,18789
551,91403;18,39713;1134,27183;0,18821
552,71403;18,42371;1134,22479;0,18852
553,51403;18,45046;1134,46293;0,18884
554,31403;18,47704;1134,54442;0,18915
555,11403;18,50371;1134,66978;0,18947
555,91403;18,53041;1134,45669;0,18978
556,71403;18,55704;1134,30321;0,19010
557,51403;18,58374;1134,01180;0,19041
558,31403;18,61043;1133,88952;0,19073
559,11403;18,63704;1134,13399;0,19104
559,91403;18,66371;1133,69841;0,19135
560,71403;18,69040;1134,22172;0,19167
561,51403;18,71707;1133,40700;0,19198
562,31403;18,74377;1133,48849;0,19230
563,11403;18,77035;1133,68593;0,19261
563,91403;18,79704;1133,02786;0,19292
564,71403;18,82379;1133,64197;0,19324
565,51403;18,85044;1133,58879;0,19355
566,31403;18,87710;1134,08696;0,19387
567,11403;18,90371;1133,93972;0,19418
567,91403;18,93035;1133,64831;0,19449
568,71403;18,95716;1132,88062;0,19481
569,51403;18,98371;1133,84565;0,19512
570,31403;19,01043;1133,62949;0,19543
571,11403;19,03702;1132,89626;0,19575
571,91403;19,06371;1133,64831;0,19606
572,71403;19,09040;1133,58879;0,19638
573,51403;19,11707;1133,22213;0,19669
574,31403;19,14377;1133,36938;0,19701
575,11403;19,17029;1132,53277;0,19732
575,91403;19,19704;1133,15322;0,19763
576,71403;19,22371;1133,61692;0,19795
577,51403;19,25049;1133,54800;0,19826
578,31403;19,27701;1133,83317;0,19858
579,11403;19,30371;1133,17203;0,19889
579,91403;19,33038;1133,08737;0,19920
580,71403;19,35713;1133,66395;0,19952
581,51403;19,38374;1133,98358;0,19983
582,31403;19,41038;1133,52295;0,20015
583,11403;19,43707;1133,85199;0,20046
583,91403;19,46371;1132,80853;0,20078
584,71403;19,49038;1133,48225;0,20109
585,51403;19,51710;1133,27224;0,20141
586,31403;19,54379;1133,82693;0,20172
587,11403;19,57032;1133,77366;0,20204
587,91403;19,59707;1133,20025;0,20235
588,71403;19,62374;1133,68277;0,20267
589,51403;19,65043;1133,02469;0,20298
590,31403;19,67713;1133,04667;0,20330
591,11403;19,70368;1133,72663;0,20361
591,91403;19,73040;1134,02745;0,20392
592,71403;19,75707;1133,79871;0,20424
593,51403;19,78371;1133,24411;0,20456
594,31403;19,81046;1133,37878;0,20487
595,11403;19,83701;1134,01804;0,20519
595,91403;19,86371;1133,98358;0,20550
596,71403;19,89037;1133,65455;0,20581
597,51403;19,91713;1134,16528;0,20613
598,31403;19,94379;1133,77366;0,20644
599,11403;19,97035;1133,87704;0,20676
599,91403;19,99704;1134,09637;0,20707
600,71403;20,02371;1133,90833;0,20738
601,51403;20,05043;1133,60444;0,20770
602,31403;20,07707;1134,58829;0,20801
603,11403;20,10377;1132,68010;0,20833
603,91403;20,13035;1134,08696;0,20864
604,71403;20,15713;1134,43164;0,20895
605,51403;20,18371;1133,71098;0,20927
606,31403;20,21046;1133,82693;0,20958
607,11403;20,23704;1134,19034;0,20990
607,91403;20,26368;1133,94279;0,21021
608,71403;20,29037;1134,73563;0,21053
609,51403;20,31707;1135,26518;0,21084
610,31403;20,34377;1133,70158;0,21116
611,11403;20,37032;1134,14023;0,21147
611,91403;20,39713;1133,77050;0,21179
612,71403;20,42371;1134,15280;0,21210
613,51403;20,45046;1134,43164;0,21242
614,31403;20,47704;1134,69800;0,21273
615,11403;20,50371;1134,55700;0,21304
615,91403;20,53043;1134,57264;0,21336
616,71403;20,55704;1134,86405;0,21367
617,51403;20,58377;1134,54442;0,21399
618,31403;20,61040;1134,54442;0,21430
619,11403;20,63704;1134,54759;0,21462
619,91403;20,66371;1135,67244;0,21493
620,71403;20,69043;1134,68235;0,21525
621,51403;20,71707;1134,87663;0,21556
622,31403;20,74374;1134,67919;0,21588
623,11403;20,77035;1134,95179;0,21619
623,91403;20,79707;1134,98941;0,21650
624,71403;20,82377;1135,08962;0,21682
625,51403;20,85040;1135,53777;0,21714
626,31403;20,87710;1135,61917;0,21745
627,11403;20,90371;1135,13041;0,21776
627,91403;20,93037;1134,99565;0,21808
628,71403;20,95713;1135,24944;0,21840
629,51403;20,98368;1135,98900;0,21871
630,31403;21,01046;1134,69800;0,21903
631,11403;21,03701;1135,00822;0,21934
631,91403;21,06371;1135,20874;0,21965
632,71403;21,09038;1135,91375;0,21997
633,51403;21,11707;1135,32469;0,22028
634,31403;21,14376;1135,65996;0,22060
635,11403;21,17035;1135,97643;0,22091
635,91403;21,19704;1135,17111;0,22122
636,71403;21,22371;1135,24944;0,22154
637,51403;21,25049;1135,26825;0,22186
638,31403;21,27704;1135,43747;0,22217
639,11403;21,30371;1135,35598;0,22248
639,91403;21,33037;1135,64739;0,22280
640,71403;21,35710;1135,14606;0,22312
641,51403;21,38376;1135,93880;0,22343
642,31403;21,41040;1135,84483;0,22374
643,11403;21,43704;1135,22755;0,22406
643,91403;21,46371;1135,81978;0,22437
644,71403;21,49037;1135,52520;0,22469
645,51403;21,51707;1136,44330;0,22500
646,31403;21,54379;1135,21190;0,22531
647,11403;21,57032;1135,77591;0,22563
647,91403;21,59704;1135,98900;0,22594
648,71403;21,62374;1136,06416;0,22625
649,51403;21,65046;1135,71631;0,22657
650,31403;21,67710;1135,64432;0,22689
651,11403;21,70365;1135,60352;0,22720
651,91403;21,73043;1136,58113;0,22752
652,71403;21,75707;1136,30854;0,22783
653,51403;21,78374;1136,04534;0,22814
654,31403;21,81046;1135,68502;0,22846
655,11403;21,83698;1136,30854;0,22877
655,91403;21,86371;1136,09545;0,22908
656,71403;21,89037;1136,09862;0,22940
657,51403;21,91710;1135,85731;0,22972
658,31403;21,94377;1135,83542;0,23003
659,11403;21,97034;1135,83542;0,23034
659,91403;21,99704;1135,90751;0,23065
660,71403;22,02376;1137,18593;0,23097
661,51403;22,05043;1137,27683;0,23128
662,31403;22,07704;1136,57173;0,23160
663,11403;22,10379;1135,76017;0,23191
663,91403;22,13035;1137,24545;0,23222
664,71403;22,15710;1136,50598;0,23254
665,51403;22,18371;1136,33676;0,23285
666,31403;22,21046;1136,80363;0,23317
667,11403;22,23704;1136,36814;0,23348
667,91403;22,26371;1137,32070;0,23380
668,71403;22,29037;1137,39269;0,23411
669,51403;22,31704;1138,72448;0,23442
670,31403;22,34379;1137,49299;0,23474
671,11403;22,37032;1137,74370;0,23505
671,91403;22,39713;1137,40209;0,23537
672,71403;22,42371;1137,83767;0,23568
673,51403;22,45040;1138,46753;0,23600
674,31403;22,47707;1138,00997;0,23631
675,11403;22,50371;1137,27050;0,23662
675,91403;22,53043;1137,88778;0,23693
676,71403;22,55704;1138,07265;0,23724
677,51403;22,58376;1139,17561;0,23756
678,31403;22,61043;1137,72796;0,23788
679,11403;22,63704;1138,10087;0,23820
679,91403;22,66371;1137,84391;0,23851
680,71403;22,69040;1138,30455;0,23882
681,51403;22,71710;1138,58348;0,23914
682,31403;22,74376;1138,50506;0,23945
683,11403;22,77032;1138,23880;0,23976
683,91403;22,79704;1138,38920;0,24008
684,71403;22,82376;1139,46702;0,24039
685,51403;22,85043;1139,18195;0,24070
686,31403;22,87710;1138,97510;0,24101
687,11403;22,90371;1138,89053;0,24133
687,91403;22,93037;1138,69933;0,24164
688,71403;22,95715;1138,96569;0,24196
689,51403;22,98371;1139,38563;0,24227
690,31403;23,01046;1138,49565;0,24258
691,11403;23,03701;1139,47643;0,24289
691,91403;23,06371;1140,50731;0,24321
692,71403;23,09040;1139,98717;0,24352
693,51403;23,11710;1139,72090;0,24384
694,31403;23,14376;1140,15015;0,24416
695,11403;23,17032;1140,39145;0,24447
695,91403;23,19704;1139,88062;0,24478
696,71403;23,22371;1140,41651;0,24510
697,51403;23,25049;1140,16579;0,24542
698,31403;23,27701;1140,23788;0,24573
699,11403;23,30371;1140,79248;0,24604
699,91403;23,33037;1140,30680;0,24636
700,71403;23,35712;1140,39145;0,24667
701,51403;23,38373;1140,78308;0,24698
702,31403;23,41040;1141,04627;0,24730
703,11403;23,43704;1141,03379;0,24762
703,91403;23,46370;1141,90802;0,24794
704,71403;23,49037;1140,82070;0,24824
705,51403;23,51707;1141,15598;0,24856
706,31403;23,54379;1141,07765;0,24887
707,11403;23,57034;1141,23113;0,24919
707,91403;23,59704;1142,66314;0,24951
708,71403;23,62370;1141,78583;0,24982
709,51403;23,65043;1141,83910;0,25013
710,31403;23,67712;1141,61028;0,25044
711,11403;23,70368;1142,47510;0,25076
711,91403;23,73043;1142,34984;0,25107
712,71403;23,75710;1142,07724;0,25139
713,51403;23,78371;1142,50649;0,25170
714,31403;23,81046;1142,01140;0,25201
715,11403;23,83701;1142,50332;0,25232
715,91403;23,86370;1142,37489;0,25264
716,71403;23,89037;1142,24013;0,25295
717,51403;23,91712;1142,24013;0,25327
718,31403;23,94376;1143,33369;0,25358
719,11403;23,97034;1143,65648;0,25389
719,91403;23,99704;1143,13941;0,25421
720,71403;24,02370;1143,81621;0,25452
721,51403;24,05046;1143,45904;0,25484
722,31403;24,07707;1143,35874;0,25516
723,11403;24,10376;1143,46528;0,25548
723,91403;24,13034;1144,24555;0,25579
724,71403;24,15712;1143,97295;0,25612
725,51403;24,18370;1144,20792;0,25644
726,31403;24,21048;1144,04811;0,25676
727,11403;24,23704;1144,57766;0,25709
727,91403;24,26368;1144,52131;0,25740
728,71403;24,29040;1144,63093;0,25772
729,51403;24,31707;1145,33287;0,25804
730,31403;24,34376;1145,54586;0,25836
731,11403;24,37031;1145,47387;0,25868
731,91403;24,39715;1145,36099;0,25900
732,71403;24,42370;1145,68686;0,25931
733,51403;24,45046;1145,33287;0,25963
734,31403;24,47707;1145,67755;0,25996
735,11403;24,50370;1145,76835;0,26028
735,91403;24,53046;1146,20393;0,26060
736,71403;24,55704;1146,17571;0,26092
737,51404;24,58376;1147,05618;0,26124
738,31404;24,61040;1146,80864;0,26156
739,11404;24,63704;1146,35117;0,26188
739,91404;24,66371;1147,16589;0,26220
740,71404;24,69043;1147,62653;0,26252
741,51404;24,71706;1147,86150;0,26284
742,31404;24,74373;1148,38481;0,26316
743,11404;24,77037;1148,32213;0,26348
743,91404;24,79707;1148,22499;0,26380
744,71404;24,82376;1148,51948;0,26411
745,51404;24,85040;1149,28409;0,26443
746,31404;24,87706;1149,42193;0,26475
747,11404;24,90370;1148,21875;0,26507
747,91404;24,93040;1149,03338;0,26539
748,71404;24,95715;1149,40945;0,26571
749,51404;24,98368;1150,28368;0,26602
750,31404;25,01045;1149,42826;0,26632
751,11404;25,03704;1150,12387;0,26663
751,91404;25,06370;1149,90138;0,26693
752,71404;25,09040;1150,16140;0,26724
753,51404;25,11707;1150,13951;0,26756
754,31404;25,14379;1150,02040;0,26787
755,11404;25,17034;1151,08266;0,26819
755,91404;25,19703;1150,26487;0,26850
756,71404;25,22370;1150,97612;0,26882
757,51404;25,25046;1150,93850;0,26915
758,31404;25,27704;1151,03563;0,26947
759,11404;25,30370;1151,48379;0,26980
759,91404;25,33037;1151,28318;0,27012
760,71404;25,35709;1151,85976;0,27044
761,51404;25,38376;1151,78144;0,27074
762,31404;25,41040;1151,76262;0,27106
763,11404;25,43704;1151,76886;0,27138
763,91404;25,46370;1151,57459;0,27170
764,71404;25,49037;1152,19820;0,27201
765,51404;25,51709;1152,41120;0,27232
766,31404;25,54379;1152,05720;0,27264
767,11404;25,57031;1152,55853;0,27295
767,91404;25,59704;1153,23216;0,27327
768,71404;25,62373;1154,02183;0,27358
769,51404;25,65045;1152,53655;0,27389
770,31404;25,67709;1152,97530;0,27421
771,11404;25,70367;1153,39514;0,27453
771,91404;25,73040;1154,15659;0,27484
772,71404;25,75712;1153,89023;0,27515
773,51404;25,78373;1154,48870;0,27546
774,31404;25,81048;1153,75230;0,27579
775,11404;25,83698;1154,42919;0,27612
775,91404;25,86370;1154,58900;0,27644
776,71404;25,89037;1154,69238;0,27675
777,51404;25,91709;1155,24381;0,27707
778,31404;25,94379;1154,58267;0,27739
779,11404;25,97034;1155,32847;0,27771
779,91404;25,99707;1154,73308;0,27802
780,71404;26,02376;1156,21835;0,27832
781,51404;26,05042;1156,25905;0,27864
782,31404;26,07703;1155,49453;0,27895
783,11404;26,10376;1156,56620;0,27928
783,91404;26,13037;1156,52857;0,27959
784,71404;26,15709;1156,66017;0,27991
785,51404;26,18370;1156,83563;0,28022
786,31404;26,21043;1156,13062;0,28053
787,11404;26,23706;1156,67274;0,28084
787,91404;26,26370;1157,32448;0,28116
788,71404;26,29040;1157,27428;0,28148
789,51404;26,31706;1157,10199;0,28180
790,31404;26,34376;1156,70720;0,28211
791,11404;26,37034;1157,39340;0,28242
791,91404;26,39712;1157,13021;0,28272
792,71404;26,42370;1157,58767;0,28303
793,51404;26,45043;1157,75373;0,28334
794,31404;26,47709;1157,82581;0,28365
795,11404;26,50370;1157,69729;0,28396
795,91404;26,53043;1158,32398;0,28429
796,71404;26,55703;1158,22684;0,28462
797,51404;26,58373;1157,90097;0,28492
798,31404;26,61042;1158,55271;0,28522
799,11404;26,63703;1158,74698;0,28553
799,91404;26,66370;1159,01027;0,28585
800,71404;26,69040;1158,83471;0,28616
801,51404;26,71706;1157,70046;0,28646
802,31404;26,74376;1158,90680;0,28657
803,11404;26,77034;1159,25781;0,28684
803,91404;26,79706;1159,05413;0,28719
804,71404;26,82373;1158,29268;0,28775
805,51404;26,85043;1157,94484;0,28780
806,31404;26,87709;1157,75689;0,20699
807,11404;26,90370;1157,89790;0,05718
807,91404;26,93037;1157,52500;0,05699
808,71404;26,95715;1157,96998;0,05356
809,51404;26,98370;1158,34596;0,04621
810,31404;27,01045;1158,99770;0,04604
811,11404;27,03701;1157,64719;0,01484
811,91404;27,06370;1158,31457;0,01484
812,71404;27,09043;1158,61855;0,01483
813,51404;27,11709;1158,54647;0,01483
814,31404;27,14376;1158,60915;0,01483
815,11404;27,17031;1158,36784;0,01482
815,91404;27,19704;1158,68440;0,01482
816,71404;27,22370;1159,27346;0,01482
817,51404;27,25561;1162,13430;0,01481
818,31404;27,29606;1167,49555;0,01481
819,11404;27,33609;1172,04525;0,01481
819,91404;27,37607;1176,11242;0,01481
820,71404;27,41601;1180,06058;0,01481
821,51404;27,45612;1183,34442;0,01480
822,31404;27,49612;1187,18604;0,01480
823,11404;27,53615;1190,15025;0,01480
823,91404;27,57604;1193,40587;0,01480
824,71404;27,61604;1195,83113;0,01480
825,51404;27,65612;1198,09974;0,01479
826,31404;27,69615;1200,18348;0,01480
827,11404;27,73615;1202,79044;0,01479
827,91404;27,77604;1206,06171;0,01479
828,71404;27,81609;1207,61590;0,01479
829,51404;27,85609;1210,15403;0,01479
830,31404;27,89609;1212,45710;0,01479
831,11404;27,93612;1214,00813;0,01479
831,91404;27,97607;1215,98532;0,01479
832,71404;28,01606;1217,67418;0,01479
833,51404;28,05612;1219,60752;0,01478
834,31404;28,09615;1221,26825;0,01478
835,11404;28,13607;1222,72531;0,01478
835,91404;28,17606;1224,01938;0,01478
836,71404;28,21606;1225,55168;0,01478
837,51404;28,25615;1227,69494;0,01478
838,31404;28,29615;1228,36865;0,01478
839,11404;28,33609;1230,00424;0,01478
839,91404;28,37604;1231,81855;0,01478
840,71404;28,41604;1232,81805;0,01478
841,51404;28,45615;1233,45414;0,01477
842,31404;28,49615;1234,54146;0,01477
843,11404;28,53615;1235,09290;0,01478
843,91404;28,57606;1236,39330;0,01477
844,71404;28,61604;1238,03206;0,01477
845,51404;28,65615;1238,89064;0,01477
846,31404;28,69612;1238,95016;0,01477
847,11404;28,73615;1239,96232;0,01477
847,91404;28,77606;1240,68921;0,01477
848,71404;28,81606;1241,57602;0,01477
849,51404;28,85609;1243,11764;0,01477
850,31404;28,89612;1242,67265;0,01477
851,11404;28,93612;1242,99228;0,01477
851,91404;28,97606;1244,32091;0,01477
852,71404;29,01606;1244,72510;0,01477
853,51404;29,05615;1244,49013;0,01477
854,31404;29,09615;1246,20404;0,01476
855,11404;29,13607;1246,60516;0,01477
855,91404;29,17606;1247,15352;0,01476
856,71404;29,21606;1247,29453;0,01476
857,51404;29,25615;1248,31600;0,01476
858,31404;29,29615;1248,00578;0,01476
859,11404;29,33609;1249,26232;0,01476
859,91404;29,37606;1249,22786;0,01476
860,71404;29,41603;1249,58185;0,01476
861,51404;29,45615;1249,42837;0,01476
862,31404;29,49609;1250,01743;0,01476
863,11404;29,53618;1250,25874;0,01476
863,91404;29,57603;1250,51877;0,01476
864,71404;29,61604;1250,54074;0,01476
865,51404;29,65615;1251,06713;0,01476
866,31404;29,69612;1252,26099;0,01476
867,11404;29,73612;1252,10742;0,01476
867,91404;29,77606;1251,79412;0,01476
868,71404;29,81609;1252,11375;0,01476
869,51404;29,85606;1252,29545;0,01476
870,31404;29,89615;1251,72827;0,01476
871,11404;29,93612;1252,60875;0,01476
871,91404;29,97603;1252,45526;0,01475
872,71404;30,01609;1252,78113;0,01475
873,51404;30,05612;1252,70281;0,01475
874,31404;30,09615;1252,21396;0,01475
875,11404;30,13612;1252,95976;0,01476
875,91404;30,17603;1252,79995;0,01475
876,71404;30,21606;1253,10076;0,01475
877,51404;30,25615;1252,17633;0,01475
878,31404;30,29612;1252,56488;0,01475
879,11404;30,33606;1253,05373;0,01475
879,91404;30,37606;1253,69299;0,01475
880,71404;30,41606;1253,07878;0,01475
881,51404;30,45615;1253,51436;0,01475
882,31404;30,49612;1252,74975;0,01475
883,11404;30,53615;1253,13830;0,01475
883,91404;30,57606;1252,85629;0,01475
884,71404;30,61606;1253,02551;0,01475
885,51404;30,65612;1253,94678;0,01475
886,31404;30,69612;1252,61508;0,01475
887,11404;30,73615;1253,31068;0,01475
887,91404;30,77606;1253,21355;0,01475
888,71404;30,81606;1253,40158;0,01475
889,51404;30,85612;1253,64913;0,01475
890,31404;30,89609;1253,39525;0,01475
891,11404;30,93609;1253,26999;0,01475
891,91404;30,97609;1253,44545;0,01475
892,71404;31,01606;1252,89084;0,01475
893,51404;31,05612;1253,15087;0,01475
894,31404;31,09615;1252,83757;0,01475
895,11404;31,13609;1253,07878;0,01475
895,91404;31,17603;1252,80302;0,01474
896,71404;31,21606;1252,67776;0,01475
897,51404;31,25617;1251,91947;0,01475
898,31404;31,29612;1251,95393;0,01474
899,11404;31,33612;1252,06048;0,01475
899,91404;31,37606;1251,53093;0,01474
900,71404;31,41597;1252,63697;0,01474
901,51404;31,45615;1252,08236;0,01474
902,31404;31,49612;1252,34555;0,01474
903,11404;31,53617;1251,52776;0,01474
903,91404;31,57606;1251,75966;0,01474
904,71404;31,61603;1251,73144;0,01474
905,51404;31,65615;1252,25782;0,01474
906,31404;31,69614;1252,23594;0,01474
907,11404;31,73614;1252,09494;0,01474
907,91404;31,77603;1251,51211;0,01474
908,71404;31,81609;1251,20506;0,01474
909,51404;31,85609;1251,58727;0,01474
910,31404;31,89611;1251,33665;0,01474
911,11404;31,93612;1252,06355;0,01474
911,91404;31,97606;1251,15486;0,01474
912,71404;32,01606;1250,50629;0,01474
913,51404;32,05614;1250,60342;0,01474
914,31404;32,09614;1251,40864;0,01474
915,11404;32,13609;1251,12981;0,01474
915,91404;32,17606;1250,40282;0,01474
916,71404;32,21606;1250,85097;0,01474
917,51404;32,25615;1249,84197;0,01474
918,31404;32,29614;1250,07387;0,01474
919,11404;32,33609;1250,15220;0,01474
919,91404;32,37603;1249,80751;0,01474
920,71404;32,41603;1248,92704;0,01474
921,51404;32,45611;1249,58502;0,01474
922,31404;32,49614;1248,99913;0,01474
923,11404;32,53617;1248,41630;0,01474
923,91404;32,57603;1248,11549;0,01474
924,71404;32,61606;1248,34105;0,01474
925,51404;32,65614;1246,47664;0,01474
926,31404;32,69614;1248,03083;0,01474
927,11404;32,73612;1247,62664;0,01474
927,91404;32,77606;1246,45475;0,01474
928,71404;32,81609;1246,71478;0,01474
929,51404;32,85611;1246,17275;0,01474
930,31404;32,89612;1245,73717;0,01474
931,11404;32,93614;1245,29535;0,01474
931,91404;32,97606;1245,13553;0,01474
932,71404;33,01606;1243,81017;0,01474
933,51404;33,05614;1243,12080;0,01474
934,31404;33,09614;1242,55987;0,01474
935,11404;33,13609;1242,71344;0,01474
935,91404;33,17606;1240,96181;0,01473
936,71404;33,21606;1241,86110;0,01473
937,51404;33,25617;1239,75547;0,01474
938,31404;33,29612;1239,21968;0,01474
939,11404;33,33611;1238,29218;0,01474
939,91404;33,37606;1237,43983;0,01473
940,71404;33,41600;1236,95731;0,01474
941,51404;33,45614;1235,51283;0,01474
942,31404;33,49614;1234,54463;0,01474
943,11404;33,53617;1233,05619;0,01474
943,91404;33,57603;1231,50516;0,01473
944,71404;33,61603;1230,57459;0,01473
945,51404;33,65614;1228,74780;0,01473
946,31404;33,69611;1227,22173;0,01474
947,11404;33,73614;1224,32653;0,01473
947,91405;33,77606;1222,44330;0,01473
948,71405;33,81608;1221,93256;0,01473
949,51405;33,85611;1217,94688;0,01473
950,31405;33,89611;1214,99831;0,01473
951,11405;33,93611;1212,06539;0,01473
951,91405;33,97606;1207,43420;0,01473
952,71405;34,01606;1203,53308;0,01473
953,51405;34,05611;1198,12796;0,01473
954,31405;34,09614;1189,66457;0,01473
955,11405;34,13609;1181,60537;0,01473
955,91405;34,17603;1167,33257;0,01473
956,42605;34,20176;659,73024;0,01473