File: 02_Appendices/Appendix_C_Experimental_Data_and_Analysis Reports/C_1_Materials_Tests/C_1_1_Tensile_tests/C_1_1_2_Quanton Iron/Specimen_RawData_3.csv
Text Inputs : Specimen label;"1"
Dimension : Length;50,00000;mm
Dimension : Final length;100,00000;mm
Test : Rate 1;4,00000;mm/min
General : Unique Identifier;"{AAFCEEAA-C881-4D3C-8DF6-96DE63448034}"

Time;Extension;Load;Strain 1
(sec);(mm);(N);(mm/mm)
0,00000;0,00000;19,29337;0,00029
0,50000;0,03174;33,43138;0,00044
1,00000;0,06650;55,23689;0,00068
1,50000;0,10006;71,41164;0,00091
2,00000;0,13330;87,08503;0,00111
2,50000;0,16669;90,28426;0,00118
3,00000;0,20000;90,24353;0,00121
3,50000;0,23336;89,69831;0,00123
4,00000;0,26667;90,19965;0,00125
4,50000;0,30006;89,30663;0,00126
5,00000;0,33333;89,26903;0,00127
5,50000;0,36667;91,18355;0,00129
6,00000;0,40006;90,04925;0,00130
6,50000;0,43336;89,67638;0,00131
7,00000;0,46667;89,71711;0,00132
7,50000;0,50003;96,01216;0,00138
8,00000;0,53336;109,58930;0,00154
8,50000;0,56669;124,40413;0,00172
9,00000;0,60000;140,24986;0,00191
9,50000;0,63333;156,97608;0,00212
10,00000;0,66669;172,31421;0,00233
10,50000;0,70006;188,27901;0,00255
11,00000;0,73333;202,04727;0,00276
11,50000;0,76667;217,23812;0,00297
12,00000;0,80003;231,53282;0,00318
12,50000;0,83339;246,61713;0,00340
13,00000;0,86667;260,82094;0,00361
13,50000;0,90000;275,33497;0,00382
14,00000;0,93336;288,90271;0,00402
14,50000;0,96675;302,79944;0,00423
15,00000;0,99997;315,68096;0,00443
15,50000;1,03336;328,77240;0,00464
16,00000;1,06667;342,46235;0,00484
16,50000;1,10006;354,85190;0,00505
17,00000;1,13330;367,00021;0,00524
17,50000;1,16672;379,67490;0,00544
18,00000;1,19997;391,42212;0,00563
18,50000;1,23336;403,83986;0,00584
19,00000;1,26667;417,60816;0,00605
19,50000;1,30006;430,10423;0,00626
20,00000;1,33333;442,13035;0,00647
20,50000;1,36667;455,02437;0,00667
21,00000;1,40006;466,09789;0,00686
21,50000;1,43333;476,84242;0,00705
22,00000;1,46664;488,12591;0,00724
22,50000;1,50003;499,71016;0,00743
23,00000;1,53339;509,31727;0,00762
23,50000;1,56666;519,47269;0,00782
24,00000;1,60000;530,81568;0,00800
24,50000;1,63336;541,63854;0,00819
25,00000;1,66666;551,72504;0,00838
25,50000;1,70003;562,06533;0,00857
26,00000;1,73336;571,88235;0,00876
26,50000;1,76666;582,52034;0,00895
27,00000;1,80000;592,47524;0,00913
27,50000;1,83339;602,79048;0,00932
28,00000;1,86664;612,67330;0,00951
28,50000;1,90000;622,74723;0,00969
29,00000;1,93333;632,90894;0,00988
29,50000;1,96672;642,34994;0,01007
30,00000;2,00000;652,49600;0,01025
30,50000;2,03336;662,69841;0,01044
31,00000;2,06666;671,86058;0,01063
31,50000;2,10005;681,28277;0,01082
32,00000;2,13330;690,89928;0,01100
32,50000;2,16669;700,82280;0,01119
33,00000;2,20000;710,50511;0,01138
33,50000;2,23336;719,37270;0,01157
34,00000;2,26666;728,92653;0,01176
34,50000;2,30003;738,55552;0,01195
35,00000;2,33333;747,72709;0,01214
35,50000;2,36669;757,33727;0,01233
36,00000;2,40005;765,99494;0,01252
36,50000;2,43333;775,49550;0,01271
37,00000;2,46666;785,00854;0,01290
37,50000;2,50005;793,81661;0,01309
38,00000;2,53336;803,43932;0,01329
38,50000;2,56666;812,23799;0,01348
39,00000;2,60000;820,66376;0,01367
39,50000;2,63336;829,66927;0,01386
40,00000;2,66666;838,34883;0,01405
40,50000;2,70003;846,48635;0,01423
41,00000;2,73333;855,42919;0,01442
41,50000;2,76666;863,68257;0,01461
42,00000;2,80003;872,45619;0,01481
42,50000;2,83339;882,13217;0,01500
43,00000;2,86666;890,22582;0,01520
43,50000;2,90003;898,57643;0,01539
44,00000;2,93333;907,30619;0,01559
44,50000;2,96675;915,55649;0,01579
45,00000;2,99997;924,37081;0,01598
45,50000;3,03333;933,06294;0,01619
46,00000;3,06666;941,09075;0,01639
46,50000;3,10005;949,70139;0,01659
47,00000;3,13330;958,31519;0,01679
47,50000;3,16669;967,00108;0,01700
48,00000;3,19997;974,60588;0,01720
48,50000;3,23336;984,26305;0,01741
49,00000;3,26666;991,53891;0,01762
49,50000;3,30002;1000,25926;0,01783
50,00000;3,33333;1008,61294;0,01804
50,50000;3,36669;1016,69403;0,01825
51,00000;3,40002;1025,31724;0,01846
51,50000;3,43333;1033,33881;0,01868
52,00000;3,46666;1041,39168;0,01889
52,50000;3,50002;1049,58564;0,01911
53,00000;3,53336;1057,70743;0,01933
53,50000;3,56669;1065,71019;0,01955
54,00000;3,60000;1073,20845;0,01977
54,50000;3,63336;1080,98565;0,01999
55,00000;3,66666;1088,64689;0,02021
55,50000;3,70002;1096,33002;0,02043
56,00000;3,73336;1104,60855;0,02065
56,50000;3,76666;1111,96274;0,02088
57,00000;3,80000;1119,11632;0,02110
57,50000;3,83339;1126,72737;0,02133
58,00000;3,86663;1133,70866;0,02155
58,50000;3,90002;1140,92184;0,02178
59,00000;3,93336;1148,70528;0,02201
59,50000;3,96675;1155,28544;0,02225
60,00000;3,99997;1161,90007;0,02248
60,50000;4,03333;1169,46734;0,02271
61,00000;4,06666;1176,81837;0,02294
61,50000;4,10005;1182,79066;0,02318
62,00000;4,13330;1189,98187;0,02341
62,50000;4,16669;1196,86602;0,02365
63,00000;4,20000;1202,93228;0,02389
63,50000;4,23336;1210,26766;0,02413
64,00000;4,26666;1217,17062;0,02437
64,50000;4,30005;1222,39087;0,02461
65,00000;4,33333;1229,41285;0,02485
65,50000;4,36666;1235,97113;0,02510
66,00000;4,40005;1242,56387;0,02534
66,50000;4,43333;1248,20089;0,02559
67,00000;4,46663;1254,49281;0,02583
67,50000;4,50005;1260,20191;0,02608
68,00000;4,53338;1266,87614;0,02633
68,50000;4,56666;1272,01499;0,02658
69,00000;4,59999;1277,78044;0,02683
69,50000;4,63333;1283,05713;0,02709
70,00000;4,66666;1288,61899;0,02734
70,50000;4,70005;1294,31551;0,02760
71,00000;4,73333;1299,16295;0,02785
71,50000;4,76666;1305,02870;0,02811
72,00000;4,80002;1309,99833;0,02837
72,50000;4,83338;1314,54496;0,02864
73,00000;4,86666;1320,37941;0,02890
73,50000;4,90002;1324,84762;0,02916
74,00000;4,93333;1329,47573;0,02943
74,50000;4,96675;1333,93453;0,02970
75,00000;4,99999;1338,53443;0,02996
75,50000;5,03333;1343,41950;0,03023
76,00000;5,06669;1348,14465;0,03050
76,50000;5,10005;1351,71050;0,03077
77,00000;5,13330;1355,88739;0,03104
77,50000;5,16669;1360,16449;0,03132
78,00000;5,19997;1363,64261;0,03159
78,50000;5,23338;1368,07635;0,03187
79,00000;5,26669;1372,83923;0,03215
79,50000;5,30002;1375,84731;0,03243
80,00000;5,33333;1379,15621;0,03271
80,50000;5,36669;1383,03535;0,03299
81,00000;5,40002;1386,57298;0,03328
81,50000;5,43333;1388,96070;0,03356
82,00000;5,46666;1393,49476;0,03385
82,50000;5,50002;1396,22083;0,03414
83,00000;5,53336;1399,66756;0,03443
83,50000;5,56669;1402,52523;0,03472
84,00000;5,60002;1404,88790;0,03501
84,50000;5,63336;1408,26572;0,03531
85,00000;5,66666;1410,86960;0,03560
85,50000;5,70002;1412,94701;0,03589
86,00000;5,73336;1416,34364;0,03620
86,50000;5,76666;1418,32717;0,03649
87,00000;5,79997;1420,37636;0,03680
87,50000;5,83341;1421,92747;0,03710
88,00000;5,86666;1425,43372;0,03740
88,50000;5,89999;1426,87196;0,03771
89,00000;5,93336;1429,45396;0,03801
89,50000;5,96675;1430,93290;0,03832
90,00000;5,99996;1432,48085;0,03863
90,50000;6,03333;1434,56766;0,03894
91,00000;6,06666;1436,62319;0,03925
91,50000;6,10008;1437,78883;0,03956
92,00000;6,13330;1439,03904;0,03988
92,50000;6,16669;1440,39271;0,04019
93,00000;6,19999;1442,31347;0,04050
93,50000;6,23335;1443,02482;0,04082
94,00000;6,26669;1444,51000;0,04114
94,50000;6,30005;1444,80458;0,04146
95,00000;6,33333;1446,48720;0,04178
95,50000;6,36669;1447,31132;0,04210
96,00000;6,40005;1447,52748;0,04242
96,50000;6,43333;1448,45815;0,04275
97,00000;6,46663;1449,54855;0,04307
97,50000;6,50005;1449,98413;0,04339
98,00000;6,53335;1450,46040;0,04372
98,50000;6,56666;1451,23750;0,04405
99,00000;6,59999;1452,12738;0,04437
99,50000;6,63333;1451,47881;0,04470
100,00000;6,66666;1452,97339;0,04504
100,50000;6,70002;1452,61306;0,04537
101,00000;6,73333;1453,26797;0,04570
101,50000;6,76669;1452,81674;0,04603
102,00000;6,80002;1453,80059;0,04637
102,50000;6,83335;1452,76664;0,04670
103,00000;6,86666;1452,60049;0,04704
103,50000;6,90002;1453,26173;0,04738
104,00000;6,93333;1452,33106;0,04772
104,50000;6,96674;1452,51276;0,04805
105,00000;6,99996;1452,65693;0,04839
105,50001;7,03335;1451,96132;0,04873
106,00001;7,06669;1452,08351;0,04907
106,50001;7,10005;1451,57902;0,04941
107,00001;7,13330;1451,01817;0,04975
107,50001;7,16672;1450,76439;0,05010
108,00001;7,19993;1450,09384;0,05044
108,36801;7,22438;1449,54855;0,05069
108,86801;7,25777;1449,14128;0,05104
109,36801;7,29099;1448,07277;0,05139
109,86801;7,32438;1447,05754;0,05173
110,36801;7,35780;1446,88832;0,05208
110,86801;7,39105;1446,29609;0,05243
111,36801;7,42435;1445,89813;0,05277
111,86801;7,45777;1444,17165;0,05312
112,36801;7,49102;1443,77677;0,05347
112,86801;7,52441;1442,99660;0,05382
113,36801;7,55774;1442,62053;0,05417
113,86801;7,59105;1441,14159;0,05452
114,36801;7,62438;1440,17646;0,05487
114,86801;7,65777;1438,84476;0,05522
115,36801;7,69107;1438,36848;0,05557
115,86801;7,72441;1437,16531;0,05592
116,36801;7,75774;1435,73647;0,05627
116,86801;7,79102;1434,47053;0,05663
117,36801;7,82446;1433,12002;0,05698
117,86801;7,85774;1432,82553;0,05734
118,36801;7,89102;1431,52829;0,05768
118,86801;7,92438;1430,51306;0,05804
119,36801;7,95780;1429,08730;0,05839
119,86801;7,99102;1427,98750;0,05875
120,36801;8,02441;1427,08188;0,05911
120,86801;8,05774;1425,91000;0,05946
121,36801;8,09104;1424,88852;0,05982
121,86801;8,12441;1423,38136;0,06018
122,36801;8,15774;1421,47932;0,06053
122,86801;8,19102;1420,53617;0,06089
123,36801;8,22441;1419,68392;0,06125
123,86801;8,25780;1417,39966;0,06161
124,36801;8,29102;1417,02993;0,06196
124,86801;8,32441;1416,13996;0,06233
125,36801;8,35777;1414,85212;0,06269
125,86801;8,39104;1413,37942;0,06304
126,36801;8,42435;1411,79394;0,06340
126,86801;8,45777;1409,99220;0,06376
127,36801;8,49102;1408,84221;0,06412
127,86801;8,52441;1408,06511;0,06448
128,36801;8,55774;1405,73699;0,06484
128,86801;8,59104;1404,56827;0,06520
129,36801;8,62438;1402,89813;0,06556
129,86801;8,65777;1401,92052;0,06592
130,36801;8,69107;1400,35376;0,06628
130,86801;8,72435;1399,25713;0,06664
131,36801;8,75774;1398,29824;0,06700
131,86801;8,79102;1396,61878;0,06736
132,36801;8,82441;1394,91102;0,06772
132,86801;8,85774;1394,06817;0,06809
133,36801;8,89104;1391,70866;0,06844
133,86801;8,92435;1391,47369;0,06881
134,36801;8,95780;1389,34292;0,06917
134,86801;8,99102;1387,50672;0,06953
135,36801;9,02441;1386,43514;0,06989
135,86801;9,05777;1385,36347;0,07025
136,36801;9,09104;1383,76541;0,07061
136,86801;9,12441;1382,85989;0,07097
137,36801;9,15774;1381,34956;0,07134
137,86801;9,19101;1379,43188;0,07170
138,36801;9,22441;1378,56398;0,07206
138,86801;9,25780;1377,53617;0,07242
139,36801;9,29099;1375,97574;0,07278
139,86801;9,32441;1374,52809;0,07315
140,36801;9,35777;1372,78279;0,07351
140,86801;9,39104;1372,81725;0,07387
141,36801;9,42435;1370,11623;0,07423
141,86801;9,45777;1369,75590;0,07460
142,36801;9,49101;1368,16408;0,07496
142,86801;9,52438;1367,23034;0,07532
143,36801;9,55774;1366,07727;0,07569
143,86801;9,59104;1363,94966;0,07605
144,36801;9,62438;1362,24506;0,07641
144,86801;9,65774;1361,26122;0,07677
145,36801;9,69107;1360,44649;0,07713
145,86801;9,72438;1359,29966;0,07750
146,36801;9,75774;1357,62952;0,07786
146,86801;9,79101;1356,15058;0,07822
147,36801;9,82446;1354,99742;0,07859
147,86801;9,85774;1354,90028;0,07895
148,36801;9,89101;1352,59721;0,07931
148,86801;9,92440;1351,54128;0,07967
149,36801;9,95777;1349,94322;0,08004
149,86801;9,99101;1349,09097;0,08040
150,36801;10,02440;1348,26684;0,08076
150,86801;10,05777;1346,62185;0,08112
151,36801;10,09104;1344,92032;0,08148
151,86801;10,12440;1344,81387;0,08185
152,36801;10,15774;1343,53535;0,08221
152,86801;10,19101;1341,85590;0,08257
153,36801;10,22440;1340,76858;0,08293
153,86801;10,25779;1339,68750;0,08329
154,36801;10,29101;1338,51878;0,08365
154,86801;10,32440;1338,03310;0,08402
155,36801;10,35777;1335,76766;0,08438
155,86801;10,39110;1335,54516;0,08474
156,36801;10,42435;1334,14138;0,08510
156,86801;10,45777;1332,63730;0,08547
157,36801;10,49104;1331,46234;0,08582
157,86801;10,52440;1331,14271;0,08619
158,36801;10,55774;1330,12747;0,08655
158,86801;10,59104;1328,36020;0,08691
159,36801;10,62438;1327,63637;0,08728
159,86801;10,65774;1326,09475;0,08764
160,36801;10,69107;1324,94792;0,08800
160,86801;10,72437;1324,14885;0,08836
161,36801;10,75774;1322,75140;0,08872
161,86801;10,79101;1322,24374;0,08908
162,36801;10,82443;1321,38524;0,08945
162,86801;10,85774;1319,85294;0,08981
163,36801;10,89104;1318,64659;0,09017
163,86801;10,92435;1318,08259;0,09053
164,36801;10,95779;1316,79783;0,09090
164,86801;10,99101;1316,06776;0,09125
165,36801;11,02440;1315,53514;0,09162
165,86801;11,05776;1314,36009;0,09198
166,36801;11,09104;1312,78709;0,09234
166,86801;11,12440;1312,56152;0,09271
167,36801;11,15777;1310,65948;0,09307
167,86801;11,19101;1309,00815;0,09342
168,36801;11,22440;1309,04578;0,09379
168,86801;11,25779;1306,81479;0,09415
169,36801;11,29101;1306,42001;0,09451
169,86801;11,32435;1307,06858;0,09487
170,36801;11,35779;1304,58064;0,09523
170,86801;11,39107;1303,65938;0,09559
171,36801;11,42435;1303,24578;0,09595
171,86801;11,45776;1301,22788;0,09632
172,36801;11,49101;1300,51663;0,09667
172,86801;11,52440;1300,07789;0,09703
173,36801;11,55774;1298,24802;0,09739
173,86801;11,59104;1298,39843;0,09775
174,36801;11,62437;1297,15754;0,09811
174,86801;11,65776;1295,67543;0,09848
175,36801;11,69104;1295,52195;0,09884
175,86801;11,72437;1294,85764;0,09919
176,36801;11,75774;1293,60426;0,09956
176,86801;11,79101;1292,12840;0,09991
177,36801;11,82443;1291,79312;0,10028
177,86801;11,85774;1290,53667;0,10064
178,36801;11,89104;1289,79087;0,10100
178,86801;11,92437;1289,21121;0,10136
179,36801;11,95779;1287,32799;0,10172
179,86801;11,99101;1287,26847;0,10208
180,36801;12,02440;1286,87052;0,10244
180,86801;12,05774;1285,08136;0,10280
181,36801;12,09104;1284,20712;0,10315
181,86801;12,12440;1284,22901;0,10351
182,36801;12,15774;1283,51776;0,10387
182,86801;12,19101;1281,98555;0,10423
183,36801;12,22440;1280,72584;0,10459
183,86801;12,25779;1280,31224;0,10496
184,36801;12,29101;1279,03698;0,10531
184,86801;12,32440;1278,55130;0,10567
185,36801;12,35776;1277,80549;0,10603
185,86801;12,39107;1277,33238;0,10639
186,36801;12,42434;1276,40171;0,10675
186,86801;12,45776;1275,99128;0,10711
187,36801;12,49101;1274,41520;0,10747
187,86801;12,52440;1274,42451;0,10783
188,36801;12,55771;1273,78851;0,10819
188,86801;12,59107;1273,04895;0,10855
189,36801;12,62437;1271,16889;0,10891
189,86801;12,65771;1271,83003;0,10927
190,36801;12,69107;1270,24455;0,10962
190,86801;12,72440;1270,89946;0,10998
191,36801;12,75773;1269,25129;0,11034
191,86801;12,79098;1268,74363;0,11070
192,36801;12,82446;1267,35242;0,11106
192,86801;12,85773;1267,78483;0,11142
193,36801;12,89104;1265,38463;0,11178
193,86801;12,92434;1265,30314;0,11214
194,36801;12,95782;1264,54169;0,11250
194,86801;12,99101;1264,20641;0,11286
195,36801;13,02437;1263,06592;0,11321
195,86801;13,05771;1263,25386;0,11357
196,36801;13,09104;1262,16346;0,11393
196,86801;13,12440;1262,44547;0,11429
197,36801;13,15776;1261,06991;0,11465
197,86801;13,19098;1259,50631;0,11500
198,36801;13,22440;1259,71939;0,11537
198,86801;13,25779;1258,75426;0,11573
199,36801;13,29098;1257,70774;0,11608
199,86801;13,32440;1258,51929;0,11644
200,36801;13,35776;1257,46960;0,11680
200,86801;13,39104;1256,72072;0,11716
201,36801;13,42434;1255,97809;0,11752
201,86801;13,45779;1255,76500;0,11788
202,36801;13,49101;1255,02236;0,11824
202,86801;13,52437;1254,11991;0,11860
203,36801;13,55776;1254,24843;0,11896
203,86801;13,59104;1252,63780;0,11932
204,36801;13,62437;1252,32767;0,11967
204,86801;13,65776;1251,93279;0,12003
205,36801;13,69104;1250,80477;0,12039
205,86801;13,72437;1251,08371;0,12075
206,36801;13,75776;1250,74526;0,12111
206,86801;13,79101;1249,35405;0,12146
207,36801;13,82443;1248,52052;0,12182
207,86801;13,85773;1247,94394;0,12218
208,36801;13,89101;1247,17625;0,12253
208,86801;13,92437;1247,37993;0,12289
209,36801;13,95776;1246,28954;0,12325
209,86801;13,99101;1245,72553;0,12361
210,36801;14,02440;1245,98248;0,12397
210,86801;14,05773;1244,89833;0,12433
211,36801;14,09104;1244,12747;0,12468
211,86801;14,12440;1243,52900;0,12504
212,36801;14,15776;1243,22819;0,12540
212,86801;14,19101;1242,63912;0,12576
213,36801;14,22437;1242,57328;0,12611
213,86801;14,25779;1242,20038;0,12647
214,36801;14,29104;1240,80293;0,12683
214,86801;14,32437;1241,16326;0,12718
215,36801;14,35773;1239,77829;0,12754
215,86801;14,39109;1239,38350;0,12790
216,36801;14,42437;1239,11398;0,12826
216,86801;14,45773;1238,34945;0,12862
217,36801;14,49101;1238,20845;0,12898
217,86801;14,52440;1236,72942;0,12933
218,36801;14,55773;1236,96448;0,12969
218,86801;14,59104;1236,09332;0,13005
219,36801;14,62437;1235,41653;0,13040
219,86801;14,65776;1235,36009;0,13076
220,36801;14,69107;1235,49802;0,13112
220,86801;14,72434;1234,22900;0,13148
221,36801;14,75773;1234,64260;0,13184
221,86801;14,79101;1233,59915;0,13220
222,36801;14,82440;1232,88156;0,13255
222,86801;14,85770;1233,21377;0,13292
223,36801;14,89104;1232,31448;0,13327
223,86801;14,92437;1231,80058;0,13363
224,36801;14,95782;1230,81980;0,13399
224,86801;14,99101;1230,61296;0,13434
225,36801;15,02440;1230,72891;0,13470
225,86801;15,05776;1229,38780;0,13506
226,36801;15,09104;1228,55119;0,13542
226,86801;15,12440;1228,66090;0,13578
227,36801;15,15776;1228,22216;0,13613
227,86801;15,19101;1227,01898;0,13648
228,36801;15,22437;1227,35426;0,13684
228,86801;15,25779;1226,41735;0,13720
229,36801;15,29101;1225,84077;0,13756
229,86801;15,32440;1226,42675;0,13792
230,36801;15,35779;1225,41776;0,13828
230,86801;15,39104;1225,05426;0,13863
231,36801;15,42434;1223,90743;0,13899
231,86801;15,45776;1224,09863;0,13935
232,36801;15,49098;1222,66663;0,13970
232,86801;15,52440;1223,52205;0,14006
233,36801;15,55773;1223,52522;0,14042
233,86801;15,59101;1222,25611;0,14077
234,36801;15,62437;1221,56367;0,14113
234,86801;15,65776;1221,28790;0,14149
235,36801;15,69106;1221,47910;0,14185
235,86801;15,72437;1220,39802;0,14220
236,36801;15,75773;1220,73647;0,14256
236,86801;15,79101;1220,03770;0,14292
237,36801;15,82445;1219,80580;0,14328
237,86801;15,85773;1219,22931;0,14364
238,36801;15,89104;1219,16663;0,14399
238,86801;15,92440;1218,76867;0,14436
239,36801;15,95779;1218,20467;0,14471
239,86801;15,99101;1217,46827;0,14507
240,36801;16,02443;1217,52154;0,14543
240,86801;16,05773;1217,02338;0,14579
241,36801;16,09101;1215,94230;0,14614
241,86801;16,12440;1215,90160;0,14650
242,36801;16,15773;1216,38095;0,14686
242,86801;16,19101;1215,01479;0,14721
243,36801;16,22440;1214,90518;0,14757
243,86801;16,25779;1214,76417;0,14793
244,36801;16,29101;1214,38503;0,14829
244,86801;16,32437;1214,14373;0,14864
245,36801;16,35776;1213,68626;0,14900
245,86801;16,39106;1213,04076;0,14936
246,36801;16,42437;1213,03136;0,14971
246,86801;16,45776;1212,78064;0,15008
247,36801;16,49101;1211,82501;0,15043
247,86801;16,52440;1211,74036;0,15079
248,36801;16,55773;1212,10068;0,15115
248,86801;16,59103;1211,44271;0,15150
249,36801;16,62440;1210,36796;0,15186
249,86801;16,65776;1210,74710;0,15222
250,36801;16,69106;1210,15487;0,15258
250,86801;16,72434;1209,84782;0,15293
251,36801;16,75773;1210,15171;0,15329
251,86801;16,79101;1209,13647;0,15365
252,36801;16,82440;1209,20232;0,15401
252,86801;16,85773;1208,81377;0,15437
253,36801;16,89103;1207,53534;0,15472
253,86801;16,92437;1208,35314;0,15508
254,36801;16,95779;1208,15262;0,15544
254,86801;16,99101;1207,83923;0,15580
255,36801;17,02440;1207,25334;0,15616
255,86801;17,05776;1207,00262;0,15652
256,36801;17,09103;1206,37277;0,15687
256,86801;17,12440;1206,29445;0,15723
257,36801;17,15776;1206,15037;0,15759
257,86801;17,19098;1205,17584;0,15795
258,36801;17,22440;1205,29495;0,15831
258,86801;17,25781;1205,25416;0,15867
259,36801;17,29101;1204,54291;0,15902
259,86801;17,32437;1204,67450;0,15938
260,36801;17,35779;1204,43953;0,15974
260,86801;17,39106;1203,99138;0,16010
261,36801;17,42437;1203,67184;0,16046
261,86801;17,45776;1203,06080;0,16082
262,36801;17,49098;1202,75682;0,16117
262,86801;17,52442;1203,04199;0,16153
263,36801;17,55773;1203,25191;0,16189
263,86801;17,59101;1201,85446;0,16225
264,36801;17,62437;1201,90773;0,16261
264,86801;17,65776;1201,10549;0,16296
265,36801;17,69106;1200,91438;0,16332
265,86801;17,72439;1201,38442;0,16368
266,36801;17,75773;1200,95825;0,16404
266,86801;17,79100;1200,25007;0,16439
267,36801;17,82445;1199,41970;0,16475
267,86801;17,85773;1199,44792;0,16511
268,36801;17,89100;1199,12829;0,16547
268,86801;17,92439;1199,08135;0,16583
269,36801;17,95779;1199,23484;0,16619
269,86801;17,99098;1197,91888;0,16654
270,36801;18,02439;1198,45774;0,16691
270,86801;18,05773;1198,62696;0,16726
271,36801;18,09103;1198,06612;0,16762
271,86801;18,12439;1197,24832;0,16798
272,36801;18,15773;1197,32032;0,16834
272,86801;18,19100;1196,80651;0,16870
273,36801;18,22439;1197,25764;0,16906
273,86801;18,25779;1195,60324;0,16942
274,36801;18,29100;1196,60283;0,16977
274,86801;18,32439;1196,23309;0,17014
275,36801;18,35776;1196,71877;0,17050
275,86801;18,39106;1195,05487;0,17086
276,36801;18,42437;1194,74465;0,17122
276,86801;18,45776;1194,40313;0,17158
277,36801;18,49100;1194,77604;0,17193
277,86801;18,52440;1193,82972;0,17230
278,36801;18,55773;1194,87317;0,17266
278,86801;18,59103;1193,93310;0,17301
279,36801;18,62437;1194,44383;0,17337
279,86801;18,65776;1193,32839;0,17373
280,36801;18,69106;1193,89240;0,17409
280,86801;18,72434;1192,71418;0,17445
281,36801;18,75773;1192,08442;0,17481
281,86801;18,79103;1192,71418;0,17517
282,36801;18,82442;1192,38207;0,17552
282,86801;18,85773;1192,43851;0,17588
283,36801;18,89103;1191,67706;0,17624
283,86801;18,92436;1191,81182;0,17660
284,36801;18,95781;1190,22317;0,17696
284,86801;18,99100;1191,05037;0,17732
285,36801;19,02439;1190,75896;0,17768
285,86801;19,05776;1190,42052;0,17804
286,36801;19,09103;1190,35477;0,17839
286,86801;19,12439;1190,36417;0,17875
287,36801;19,15778;1190,11663;0,17912
287,86801;19,19100;1189,43974;0,17947
288,36801;19,22439;1189,36459;0,17983
288,86801;19,25778;1189,68422;0,18019
289,36801;19,29100;1188,98861;0,18055
289,86801;19,32437;1189,05120;0,18091
290,36801;19,35778;1187,98278;0,18127
290,86801;19,39106;1189,01674;0,18163
291,36801;19,42437;1187,97021;0,18199
291,86801;19,45776;1187,91377;0,18235
292,36801;19,49100;1187,81663;0,18271
292,86801;19,52439;1188,40579;0,18307
293,36801;19,55776;1187,68821;0,18343
293,86801;19,59103;1187,06776;0,18379
294,36801;19,62437;1187,12736;0,18415
294,86801;19,65778;1186,74506;0,18451
295,36801;19,69106;1186,66356;0,18487
295,86801;19,72437;1186,42226;0,18523
296,36801;19,75773;1186,80457;0,18560
296,86801;19,79100;1187,07716;0,18596
297,36801;19,82445;1186,01499;0,18632
297,86801;19,85773;1186,17788;0,18668
298,36801;19,89103;1185,82696;0,18704
298,86801;19,92439;1185,53238;0,18740
299,36801;19,95775;1185,61070;0,18776
299,86801;19,99100;1184,90262;0,18812
300,36801;20,02442;1185,60446;0,18848
300,86801;20,05773;1184,97461;0,18884
301,36801;20,09103;1184,68953;0,18921
301,86801;20,12442;1184,31663;0,18957
302,36801;20,15773;1183,86857;0,18993
302,86801;20,19100;1184,21633;0,19028
303,36801;20,22439;1184,48585;0,19065
303,86801;20,25778;1183,70252;0,19101
304,36801;20,29100;1183,36724;0,19137
304,86801;20,32439;1184,22890;0,19173
305,36801;20,35778;1183,24813;0,19209
305,86801;20,39109;1183,56152;0,19245
306,36801;20,42436;1182,16081;0,19282
306,86801;20,45775;1182,81888;0,19318
307,36801;20,49100;1183,14782;0,19354
307,86801;20,52442;1183,00375;0,19390
308,36801;20,55773;1182,95355;0,19426
308,86801;20,59103;1182,43657;0,19462
309,36801;20,62439;1182,30497;0,19499
309,86801;20,65775;1182,10446;0,19535
310,36801;20,69106;1182,32695;0,19571
310,86801;20,72436;1182,02297;0,19607
311,36801;20,75773;1181,76602;0,19644
311,86801;20,79100;1181,71899;0,19680
312,36801;20,82442;1181,62818;0,19716
312,86801;20,85775;1181,16438;0,19753
313,36801;20,89103;1181,45579;0,19789
313,86801;20,92436;1181,64700;0,19825
314,36801;20,95781;1181,48401;0,19861
314,86801;20,99100;1180,81030;0,19898
315,36801;21,02439;1181,88513;0,19934
315,86802;21,05775;1181,21458;0,19971
316,36802;21,09103;1180,56592;0,20006
316,86802;21,12439;1180,86049;0,20043
317,36802;21,15775;1180,71949;0,20079
317,86802;21,19100;1180,84792;0,20115
318,36802;21,22439;1180,62859;0,20151
318,86802;21,25778;1179,90794;0,20188
319,36802;21,29100;1180,26827;0,20224
319,86802;21,32442;1179,51939;0,20260
320,36802;21,35778;1180,19935;0,20297
320,86802;21,39106;1179,94547;0,20333
321,36802;21,42436;1179,42849;0,20369
321,86802;21,45778;1179,97369;0,20405
322,36802;21,49100;1179,60079;0,20441
322,86802;21,52442;1179,30938;0,20478
323,36802;21,55775;1179,36898;0,20514
323,86802;21,59103;1179,35641;0,20550
324,36802;21,62436;1178,92716;0,20587
324,86802;21,65778;1178,69209;0,20624
325,36802;21,69106;1178,91151;0,20659
325,86802;21,72439;1179,24046;0,20696
326,36802;21,75775;1178,35375;0,20733
326,86802;21,79100;1178,91151;0,20769
327,36802;21,82445;1178,62951;0,20805
327,86802;21,85772;1178,83626;0,20842
328,36802;21,89103;1178,32553;0,20878
328,86802;21,92439;1178,75794;0,20914
329,36802;21,95778;1178,20017;0,20951
329,86802;21,99100;1178,24096;0,20987
330,36802;22,02439;1179,17154;0,21024
330,86802;22,05773;1178,87072;0,21061
331,36802;22,09103;1178,19076;0,21097
331,86802;22,12442;1177,68627;0,21134
332,36802;22,15772;1177,73330;0,21170
332,86802;22,19100;1178,75170;0,21207
333,36802;22,22439;1178,06541;0,21243
333,86802;22,25778;1177,52962;0,21280
334,36802;22,29103;1178,82378;0,21316
334,86802;22,32442;1177,79281;0,21353
335,36802;22,35775;1178,23780;0,21390
335,86802;22,39109;1178,48534;0,21427
336,36802;22,42436;1177,47951;0,21463
336,86802;22,45775;1177,45446;0,21499
337,36802;22,49100;1178,30671;0,21536
337,86802;22,52439;1178,50415;0,21573
338,36802;22,55775;1177,65181;0,21609
338,86802;22,59106;1177,32286;0,21646
339,36802;22,62439;1178,27542;0,21682
339,86802;22,65775;1177,86489;0,21719
340,36802;22,69106;1178,35375;0,21756
340,86802;22,72436;1177,98708;0,21792
341,36802;22,75772;1178,38196;0,21829
341,86802;22,79100;1178,74537;0,21865
342,36802;22,82445;1178,53545;0,21902
342,86802;22,85772;1178,89270;0,21939
343,36802;22,89103;1178,14066;0,21975
343,86802;22,92439;1178,22522;0,22012
344,36802;22,95781;1177,83360;0,22049
344,86802;22,99100;1178,72972;0,22085
345,36802;23,02439;1178,86448;0,22122
345,86802;23,05775;1178,11868;0,22159
346,36802;23,09103;1178,23463;0,22195
346,86802;23,12439;1178,24720;0,22233
347,36802;23,15778;1178,01530;0,22269
347,86802;23,19100;1178,30988;0,22306
348,36802;23,22439;1178,00906;0,22343
348,86802;23,25778;1178,15947;0,22380
349,36802;23,29100;1178,20958;0,22416
349,86802;23,32439;1177,90876;0,22453
350,36802;23,35778;1178,37880;0,22490
350,86802;23,39106;1178,56367;0,22527
351,36802;23,42436;1178,54169;0,22564
351,86802;23,45778;1178,68269;0,22601
352,36802;23,49100;1178,94281;0,22638
352,86802;23,52439;1178,93340;0,22675
353,36802;23,55775;1178,96479;0,22711
353,86802;23,59106;1179,09322;0,22748
354,36802;23,62436;1178,96162;0,22785
354,86802;23,65775;1178,92092;0,22822
355,36802;23,69106;1178,76111;0,22859
355,86802;23,72439;1179,64465;0,22896
356,36802;23,75775;1178,55743;0,22933
356,86802;23,79100;1179,50058;0,22969
357,36802;23,82447;1178,62318;0,23006
357,86802;23,85772;1179,07124;0,23043
358,36802;23,89100;1178,75477;0,23080
358,86802;23,92439;1179,26868;0,23117
359,36802;23,95781;1179,11203;0,23154
359,86802;23,99100;1178,99291;0,23191
360,36802;24,02442;1179,38146;0,23228
360,86802;24,05775;1179,99874;0,23265
361,36802;24,09103;1178,59496;0,23301
361,86802;24,12442;1179,27184;0,23338
362,36802;24,15772;1178,50415;0,23376
362,86802;24,19100;1179,38463;0,23412
363,36802;24,22439;1179,86090;0,23450
363,86802;24,25778;1179,77941;0,23487
364,36802;24,29103;1179,60712;0,23524
364,86802;24,32439;1179,19352;0,23561
365,36802;24,35775;1179,89536;0,23598
365,86802;24,39105;1180,25886;0,23635
366,36802;24,42439;1180,07706;0,23672
366,86802;24,45775;1179,33452;0,23710
367,36802;24,49100;1179,71050;0,23747
367,86802;24,52441;1179,78882;0,23784
368,36802;24,55775;1179,69485;0,23821
368,86802;24,59105;1180,50324;0,23858
369,36802;24,62436;1180,39669;0,23896
369,86802;24,65775;1180,26203;0,23933
370,36802;24,69108;1180,06142;0,23970
370,86802;24,72436;1180,50016;0,24007
371,36802;24,75772;1181,03279;0,24044
371,86802;24,79103;1180,13974;0,24082
372,36802;24,82441;1180,85416;0,24119
372,86802;24,85772;1180,95130;0,24156
373,36802;24,89103;1181,12052;0,24193
373,86802;24,92439;1180,69751;0,24230
374,36802;24,95778;1181,05477;0,24267
374,86802;24,99100;1180,76336;0,24305
375,36802;25,02439;1181,47777;0,24342
375,86802;25,05775;1181,17696;0,24379
376,36802;25,09103;1181,18636;0,24416
376,86802;25,12439;1181,19577;0,24454
377,36802;25,15775;1181,80364;0,24492
377,86802;25,19100;1181,27717;0,24529
378,36802;25,22439;1181,52788;0,24566
378,86802;25,25781;1181,09230;0,24604
379,36802;25,29100;1182,01980;0,24641
379,86802;25,32439;1181,36806;0,24679
380,36802;25,35778;1181,65007;0,24716
380,86802;25,39108;1181,47777;0,24753
381,36802;25,42436;1182,24230;0,24791
381,86802;25,45775;1181,39945;0,24828
382,36802;25,49100;1181,88197;0,24866
382,86802;25,52439;1182,43974;0,24904
383,36802;25,55775;1182,16397;0,24940
383,86802;25,59102;1181,77226;0,24978
384,36802;25,62436;1181,94465;0,25016
384,86802;25,65775;1182,24854;0,25054
385,36802;25,69105;1183,58340;0,25091
385,86802;25,72438;1182,46479;0,25128
386,36802;25,75775;1183,02563;0,25166
386,86802;25,79100;1182,26428;0,25203
387,36802;25,82447;1182,23913;0,25241
387,86802;25,85772;1183,37031;0,25279
388,36802;25,89099;1182,65282;0,25316
388,86802;25,92439;1183,59597;0,25354
389,36802;25,95780;1183,50191;0,25392
389,86802;25,99100;1182,85650;0,25429
390,36802;26,02438;1183,88738;0,25467
390,86802;26,05775;1183,95630;0,25505
391,36802;26,09102;1183,86857;0,25543
391,86802;26,12441;1183,83719;0,25581
392,36802;26,15775;1184,01265;0,25619
392,86802;26,19102;1184,07533;0,25656
393,36802;26,22439;1183,56459;0,25694
393,86802;26,25778;1183,70876;0,25732
394,36802;26,29100;1183,68054;0,25769
394,86802;26,32441;1183,83719;0,25807
395,36802;26,35775;1183,96571;0,25845
395,86802;26,39108;1184,68953;0,25883
396,36802;26,42436;1184,15058;0,25920
396,86802;26,45775;1183,50508;0,25958
397,36802;26,49102;1184,80856;0,25995
397,86802;26,52438;1184,58606;0,26033
398,36802;26,55775;1184,49833;0,26071
398,86802;26,59105;1184,89321;0,26110
399,36802;26,62436;1184,96530;0,26148
399,86802;26,65775;1185,11878;0,26187
400,36802;26,69108;1184,98094;0,26225
400,86802;26,72436;1185,05610;0,26264
401,36802;26,75772;1185,61387;0,26304
401,86802;26,79102;1185,29741;0,26343
402,36802;26,82441;1185,57317;0,26382
402,86802;26,85772;1185,86142;0,26421
403,36802;26,89102;1185,65150;0,26459
403,86802;26,92439;1186,42226;0,26498
404,36802;26,95780;1185,82696;0,26537
404,86802;26,99099;1185,83012;0,26576
405,36802;27,02438;1185,74230;0,26615
405,86802;27,05775;1186,14659;0,26654
406,36802;27,09102;1186,20927;0,26690
406,86802;27,12439;1186,40978;0,26727
407,36802;27,15777;1185,98985;0,26765
407,86802;27,19099;1186,02747;0,26802
408,36802;27,22439;1187,03023;0,26840
408,86802;27,25778;1187,27144;0,26879
409,36802;27,29102;1187,13984;0,26917
409,86802;27,32438;1187,60364;0,26955
410,36802;27,35777;1187,23698;0,26995
410,86802;27,39105;1187,00825;0,27035
411,36802;27,42439;1187,55037;0,27075
411,86802;27,45775;1187,33728;0,27114
412,36802;27,49099;1186,99567;0,27153
412,86802;27,52441;1188,13943;0,27191
413,36802;27,55775;1188,18330;0,27230
413,86802;27,59105;1187,47829;0,27270
414,36802;27,62436;1187,08974;0,27309
414,86802;27,65777;1187,66623;0,27348
415,36802;27,69108;1188,26786;0,27386
415,86802;27,72439;1187,86367;0,27426
416,36802;27,75772;1188,12062;0,27464
416,86802;27,79099;1188,45589;0,27502
417,36802;27,82447;1188,53739;0,27541
417,86802;27,85775;1188,66274;0,27579
418,36802;27,89102;1188,43084;0,27618
418,86802;27,92441;1188,76612;0,27656
419,36802;27,95780;1188,97287;0,27694
419,86802;27,99099;1189,07634;0,27734
420,36802;28,02441;1189,63402;0,27773
420,86802;28,05774;1189,48054;0,27813
421,36802;28,09102;1190,28268;0,27852
421,86802;28,12441;1189,30507;0,27891
422,36802;28,15772;1189,27062;0,27930
422,86802;28,19099;1189,75313;0,27968
423,36802;28,22438;1190,25130;0,28007
423,86802;28,25777;1189,48054;0,28046
424,36802;28,29102;1189,48361;0,28084
424,86802;28,32438;1190,30150;0,28123
425,36802;28,35774;1191,21326;0,28163
425,86802;28,39108;1190,35160;0,28200
426,36802;28,42436;1189,95989;0,28239
426,86802;28,45775;1191,20702;0,28280
427,36802;28,49099;1191,00967;0,28318
427,86802;28,52441;1191,07859;0,28357
428,36802;28,55774;1191,51725;0,28396
428,86802;28,59105;1192,34137;0,28433
429,36802;28,62436;1192,17215;0,28472
429,86802;28,65774;1192,04996;0,28510
430,36802;28,69108;1192,07501;0,28549
430,86802;28,72435;1192,63586;0,28588
431,36802;28,75772;1192,56694;0,28627
431,86802;28,79102;1192,96806;0,28666
432,36802;28,82441;1192,24731;0,28704
432,86802;28,85772;1193,20303;0,28742
433,36802;28,89105;1192,96806;0,28781
433,86802;28,92438;1192,62338;0,28819
434,36802;28,95780;1193,78269;0,28858
434,86802;28,99099;1192,69229;0,28896
435,36802;29,02438;1193,59475;0,28936
435,86802;29,05777;1193,19679;0,28975
436,36802;29,09105;1193,19363;0,29013
436,86802;29,12438;1193,87675;0,29051
437,36802;29,15774;1194,66009;0,29091
437,86802;29,19099;1194,11489;0,29129
438,36802;29,22438;1193,95507;0,29169
438,86802;29,25780;1194,66009;0,29207
439,36802;29,29099;1195,02358;0,29244
439,86802;29,32438;1194,86060;0,29282
440,36802;29,35777;1195,15201;0,29321
440,86802;29,39105;1194,52216;0,29361
441,36802;29,42435;1195,86019;0,29400
441,86802;29,45775;1194,33729;0,29439
442,36802;29,49099;1195,57194;0,29476
442,86802;29,52441;1195,39956;0,29514
443,36802;29,55774;1196,35211;0,29554
443,86802;29,59102;1196,09516;0,29592
444,36802;29,62435;1196,02308;0,29630
444,86802;29,65777;1196,24874;0,29667
445,36802;29,69105;1196,54322;0,29705
445,86802;29,72438;1197,00385;0,29743
446,36802;29,75775;1197,97522;0,29780
446,86802;29,79102;1196,80958;0,29820
447,36802;29,82444;1197,33913;0,29860
447,86802;29,85771;1197,58360;0,29899
448,36802;29,89102;1196,92553;0,29937
448,86802;29,92441;1196,69056;0,29976
449,36802;29,95777;1197,93760;0,30014
449,86802;29,99099;1197,46132;0,30053
450,36802;30,02441;1197,86868;0,30093
450,86802;30,05775;1197,91254;0,30132
451,36802;30,09105;1198,11622;0,30171
451,86802;30,12441;1197,71520;0,30209
452,36802;30,15771;1198,59874;0,30247
452,86802;30,19099;1198,56428;0,30286
453,36802;30,22438;1198,32931;0,30325
453,86802;30,25777;1198,77113;0,30365
454,36802;30,29099;1198,00968;0,30405
454,86802;30,32441;1198,47655;0,30444
455,36802;30,35777;1199,22860;0,30483
455,86802;30,39108;1199,03749;0,30522
456,36802;30,42435;1198,44526;0,30562
456,86802;30,45774;1199,13146;0,30597
457,36802;30,49102;1198,90273;0,30634
457,86802;30,52441;1199,44485;0,30672
458,36802;30,55774;1199,61090;0,30708
458,86802;30,59105;1199,27246;0,30749
459,36802;30,62438;1199,67042;0,30786
459,86802;30,65774;1199,85212;0,30827
460,36802;30,69108;1199,79260;0,30866
460,86802;30,72438;1200,70763;0,30904
461,36802;30,75771;1200,00886;0,30941
461,86802;30,79102;1200,34097;0,30979
462,36802;30,82444;1200,34413;0,31019
462,86802;30,85771;1201,00211;0,31058
463,36802;30,89102;1201,23401;0,31096
463,86802;30,92438;1201,63197;0,31136
464,36802;30,95780;1201,66019;0,31175
464,86802;30,99099;1200,96449;0,31213
465,36802;31,02438;1202,15518;0,31250
465,86802;31,05774;1201,97665;0,31289
466,36802;31,09102;1202,07062;0,31327
466,86802;31,12438;1201,74792;0,31366
467,36802;31,15777;1202,50620;0,31405
467,86802;31,19099;1204,11050;0,31393
468,36802;31,22438;1205,31684;0,31372
468,86802;31,25777;1205,54874;0,31353
469,36802;31,29099;1206,54516;0,31338
469,86802;31,32441;1208,24659;0,31328
470,36802;31,35777;1208,72287;0,31320
470,86802;31,39105;1208,48790;0,31315
471,36802;31,42435;1208,82317;0,31310
471,86802;31,45774;1209,49680;0,31307
472,36802;31,49101;1210,27706;0,31304
472,86802;31,52441;1210,47758;0,31302
473,36802;31,55774;1210,29271;0,31300
473,86802;31,59102;1210,90999;0,31298
474,36802;31,62438;1212,10068;0,31296
474,86802;31,65777;1211,36745;0,31288
475,36802;31,69105;1212,71489;0,31287
475,86802;31,72438;1212,61459;0,31285
476,36802;31,75774;1213,32277;0,31283
476,86802;31,79102;1213,06265;0,31281
477,36802;31,82446;1212,11642;0,31278
477,86802;31,85774;1212,67727;0,31277
478,36802;31,89102;1213,25068;0,31274
478,86802;31,92438;1213,68626;0,31270
479,36802;31,95780;1213,83667;0,31267
479,86802;31,99099;1213,25068;0,31263
480,36802;32,02440;1214,48208;0,31259
480,86802;32,05774;1214,02778;0,31255
481,36802;32,09102;1214,67635;0,31254
481,86802;32,12441;1213,53269;0,31249
482,36802;32,15771;1213,78964;0,31246
482,86802;32,19099;1214,02778;0,31239
483,36802;32,22441;1213,13166;0,31233
483,86802;32,25777;1213,48882;0,31225
484,36802;32,29102;1213,80528;0,31190
484,86802;32,32441;1213,53585;0,31188
485,36802;32,35777;1212,42348;0,31211
485,86802;32,39107;1211,75293;0,31231
486,36802;32,42435;1209,60027;0,31272
486,86802;32,45777;1207,68882;0,31311
487,36802;32,49104;1206,99639;0,31319
487,86802;32,52441;1207,60743;0,31323
488,36802;32,55771;1208,86387;0,31326
488,86802;32,59107;1208,45344;0,31332
489,36802;32,62435;1207,38177;0,31279
489,86802;32,65774;1207,49772;0,26863
490,36802;32,69110;1208,17767;0,16904
490,86802;32,72441;1207,84240;0,14464
491,36802;32,75771;1208,39383;0,14541
491,86802;32,79099;1207,48831;0,14584
492,36802;32,82444;1208,62890;0,14622
492,86802;32,85771;1208,21213;0,14690
493,36802;32,89104;1208,53800;0,14765
493,86802;32,92438;1208,58504;0,15307
494,36802;32,95780;1208,93279;0,14615
494,86802;32,99099;1208,78238;0,14562
495,36802;33,02438;1208,65712;0,13665
495,86802;33,05777;1208,91714;0,06413
496,36802;33,09104;1209,55324;0,06330
496,86802;33,12441;1209,34648;0,01685
497,36802;33,15774;1210,06090;-0,00544
497,86802;33,19102;1209,65354;-0,00376
498,36802;33,22438;1210,18616;-0,00437
498,86802;33,25780;1209,35580;-0,00475
499,36802;33,29099;1208,54117;0,00067
499,86802;33,32440;1210,10477;0,00204
500,36802;33,35780;1209,69107;0,00043
500,86802;33,39104;1210,05457;0,00211
501,36802;33,42435;1210,08903;0,00210
501,86802;33,45777;1210,15804;0,00210
502,36802;33,49101;1210,30835;0,00210
502,86802;33,52437;1210,09536;0,00210
503,36802;33,55774;1210,36796;0,00209
503,86802;33,59101;1210,75958;0,00209
504,36802;33,62438;1210,81918;0,00209
504,86802;33,65774;1210,41806;0,00209
505,36802;33,69107;1211,18892;0,00209
505,86802;33,72438;1211,54608;0,00209
506,36802;33,75774;1211,33933;0,00209
506,86802;33,79101;1211,48657;0,00209
507,36802;33,82446;1210,31469;0,00208
507,86802;33,85774;1211,14189;0,00208
508,36802;33,89102;1211,56489;0,00208
508,86802;33,92440;1211,53360;0,00208
509,36802;33,95776;1211,54925;0,00208
509,86802;33,99099;1211,53044;0,00208
510,36802;34,02438;1212,44853;0,00208
510,86802;34,05777;1212,07563;0,00208
511,36802;34,09104;1211,55242;0,00208
511,86802;34,12440;1212,25426;0,00208
512,36802;34,15771;1212,50181;0,00207
512,86802;34,19104;1212,48616;0,00207
513,36802;34,22441;1213,78964;0,00207
513,86802;34,25774;1213,29771;0,00207
514,36802;34,29104;1212,63340;0,00207
514,86802;34,32440;1213,35406;0,00207
515,36802;34,35777;1213,55467;0,00207
515,86802;34,39104;1213,09087;0,00207
516,36802;34,42438;1213,49506;0,00207
516,86802;34,45777;1213,69567;0,00207
517,36802;34,49104;1214,17195;0,00206
517,86802;34,52437;1214,24086;0,00206
518,36802;34,55777;1213,95262;0,00206
518,86802;34,59107;1214,23146;0,00206
519,36802;34,62435;1213,88054;0,00206
519,86802;34,65774;1214,40375;0,00206
520,36802;34,69110;1214,35681;0,00206
520,86802;34,72438;1215,05558;0,00206
521,36802;34,75771;1214,29414;0,00206
521,86802;34,79101;1215,03985;0,00206
522,36802;34,82446;1214,44762;0,00206
522,86802;34,85774;1215,74178;0,00206
523,36802;34,89101;1213,77399;0,00206
523,86802;34,92438;1215,64772;0,00206
524,36802;34,95782;1215,25917;0,00206
524,86802;34,99101;1216,04884;0,00206
525,36802;35,02434;1214,71398;0,00205
525,86802;35,05774;1215,71356;0,00205
526,36803;35,09107;1215,88903;0,00205
526,86803;35,12438;1214,90518;0,00205
527,36803;35,15774;1215,89843;0,00205
527,86803;35,19104;1216,44055;0,00205
528,36803;35,22443;1215,81070;0,00205
528,86803;35,25776;1215,29680;0,00205
529,36803;35,29098;1216,63790;0,00205
529,86803;35,32440;1216,38095;0,00205
530,36803;35,35779;1215,61019;0,00205
530,86803;35,39101;1217,32410;0,00205
531,36803;35,42435;1216,42174;0,00205
531,86803;35,45779;1216,96070;0,00205
532,36803;35,49104;1216,84475;0,00205
532,86803;35,52435;1217,60610;0,00205
533,36803;35,55771;1216,92307;0,00205
533,86803;35,59107;1216,73821;0,00205
534,36803;35,62437;1217,37737;0,00205
534,86803;35,65774;1217,59679;0,00205
535,36803;35,69104;1217,45262;0,00205
535,86803;35,72440;1217,73779;0,00205
536,36803;35,75774;1218,08872;0,00205
536,86803;35,79101;1218,05733;0,00205
537,36803;35,82446;1217,14240;0,00205
537,86803;35,85776;1217,64690;0,00205
538,36803;35,89099;1218,16387;0,00204
538,86803;35,92438;1218,25477;0,00204
539,36803;35,95779;1218,30488;0,00204
539,86803;35,99104;1217,64373;0,00204
540,36803;36,02437;1218,25477;0,00204
540,86803;36,05771;1218,95662;0,00204
541,36803;36,09104;1217,95079;0,00204
541,86803;36,12443;1218,23912;0,00204
542,36803;36,15771;1218,78115;0,00204
542,86803;36,19098;1218,79373;0,00204
543,36803;36,22440;1219,05068;0,00204
543,86803;36,25776;1218,56499;0,00204
544,36803;36,29098;1218,81561;0,00204
544,86803;36,32437;1218,99741;0,00204
545,36803;36,35777;1218,92849;0,00204
545,86803;36,39110;1218,71848;0,00204
546,36803;36,42435;1219,04127;0,00204
546,86803;36,45774;1218,92216;0,00204
547,36803;36,49104;1219,35457;0,00204
547,86803;36,52437;1218,74046;0,00204
548,36803;36,55771;1218,59005;0,00204
548,86803;36,59104;1219,19792;0,00204
549,36803;36,62440;1218,74986;0,00204
549,86803;36,65774;1219,05692;0,00204
550,36803;36,69107;1219,19792;0,00204
550,86803;36,72434;1218,46469;0,00204
551,36803;36,75776;1219,03503;0,00204
551,86803;36,79101;1217,78790;0,00204
552,36803;36,82443;1218,71848;0,00204
552,86803;36,85771;1218,46162;0,00204
553,36803;36,89104;1218,70600;0,00204
553,86803;36,92434;1218,03228;0,00204
554,36803;36,95776;1218,19526;0,00204
554,86803;36,99104;1217,92573;0,00204
555,36803;37,02440;1218,48667;0,00204
555,86803;37,05774;1217,94138;0,00203
556,36803;37,09104;1216,92931;0,00203
556,86803;37,12440;1216,39976;0,00203
557,36803;37,15779;1215,12758;0,00203
557,86803;37,19101;1215,24977;0,00203
558,36803;37,22437;1214,16254;0,00203
558,86803;37,25779;1212,49557;0,00203
559,36803;37,29101;1212,02553;0,00203
559,86803;37,32437;1211,20140;0,00203
560,36803;37,35779;1209,73494;0,00203
560,86803;37,39107;1208,49414;0,00203
561,36803;37,42435;1206,88668;0,00203
561,86803;37,45776;1205,25416;0,00203
562,36803;37,49101;1203,16418;0,00203
562,86803;37,52440;1201,55988;0,00203
563,36803;37,55774;1198,84321;0,00203
563,86803;37,59104;1195,91029;0,00203
564,36803;37,62437;1192,24107;0,00203
564,86803;37,65776;1186,56643;0,00203
565,36803;37,69107;1178,56991;0,00203
565,86803;37,72437;1166,27123;0,00203
566,36803;37,75774;1142,86458;0,00203
566,58403;37,77206;620,11206;0,00203