File: 02_Appendices/Appendix_C_Experimental_Data/C_1_Materials_Tests/C_1_1_Tensile_tests/C_1_1_2_Quanton Iron/Specimen_RawData_6.csv
Text Inputs : Specimen label;"1"
Dimension : Length;50,00000;mm
Dimension : Final length;100,00000;mm
Test : Rate 1;4,00000;mm/min
General : Unique Identifier;"{3007F469-4EBD-4F99-85B1-A18A16B31A65}"

Time;Extension;Load;Strain 1
(sec);(mm);(N);(mm/mm)
0,00000;0,00000;6,21089;0,00027
0,40000;0,02444;17,62281;0,00038
0,80000;0,05291;37,72374;0,00061
1,20000;0,07991;56,65903;0,00083
1,60000;0,10670;72,31676;0,00103
2,00000;0,13333;87,02819;0,00122
2,40000;0,16000;100,07578;0,00140
2,80000;0,18664;102,30051;0,00146
3,20000;0,21336;103,75755;0,00148
3,60000;0,24000;104,85426;0,00151
4,00000;0,26667;104,74145;0,00152
4,40000;0,29330;105,26787;0,00154
4,80000;0,32003;105,32427;0,00156
5,20000;0,34667;105,11433;0,00158
5,60000;0,37330;106,16089;0,00159
6,00000;0,40006;105,69087;0,00160
6,40000;0,42664;105,31800;0,00161
6,80000;0,45336;105,76921;0,00162
7,20000;0,47997;105,97915;0,00164
7,60000;0,50667;107,14792;0,00166
8,00000;0,53336;109,20345;0,00170
8,40000;0,56000;117,59789;0,00180
8,80000;0,58664;129,46418;0,00196
9,20000;0,61333;144,29782;0,00214
9,60000;0,63997;158,60817;0,00233
10,00000;0,66667;171,74035;0,00252
10,40000;0,69336;185,69037;0,00270
10,80000;0,72000;199,33330;0,00289
11,20000;0,74667;212,30881;0,00308
11,60000;0,77330;226,88550;0,00327
12,00000;0,80000;239,94250;0,00346
12,40000;0,82669;252,92428;0,00365
12,80000;0,85336;266,69255;0,00384
13,20000;0,88000;278,97244;0,00402
13,60000;0,90664;291,61582;0,00421
14,00000;0,93333;304,53179;0,00439
14,40000;0,96003;317,03729;0,00458
14,80000;0,98667;329,33913;0,00476
15,20000;1,01333;340,43773;0,00495
15,60000;1,03994;354,35013;0,00513
16,00000;1,06667;365,21999;0,00532
16,40000;1,09333;376,81053;0,00550
16,80000;1,12003;388,21306;0,00568
17,20000;1,14669;399,95085;0,00587
17,60000;1,17327;412,11168;0,00605
18,00000;1,20000;422,88438;0,00622
18,40000;1,22669;433,55683;0,00640
18,80000;1,25342;444,32017;0,00657
19,20000;1,27994;455,13362;0,00674
19,60000;1,30667;466,42022;0,00691
20,00000;1,33333;475,95524;0,00708
20,40000;1,36003;486,17334;0,00725
20,80000;1,38667;496,41337;0,00742
21,20000;1,41333;506,81946;0,00759
21,60000;1,44000;517,99640;0,00776
22,00000;1,46667;527,84476;0,00794
22,40000;1,49333;539,27861;0,00812
22,80000;1,52000;548,89196;0,00830
23,20000;1,54672;560,55146;0,00848
23,60000;1,57327;571,19885;0,00866
24,00000;1,60003;580,39231;0,00884
24,40000;1,62664;590,84226;0,00901
24,80000;1,65336;600,36476;0,00918
25,20000;1,68000;609,44543;0,00935
25,60000;1,70664;619,08383;0,00951
26,00000;1,73336;628,07989;0,00968
26,40000;1,76000;636,46184;0,00985
26,80000;1,78666;646,31333;0,01001
27,20000;1,81336;654,01839;0,01017
27,60000;1,84000;662,92360;0,01033
28,00000;1,86664;670,80730;0,01049
28,40000;1,89330;678,37141;0,01064
28,80000;1,92003;686,85045;0,01080
29,20000;1,94669;694,90019;0,01095
29,60000;1,97333;703,24764;0,01110
30,00000;1,99997;709,89053;0,01126
30,40000;2,02669;718,65157;0,01141
30,80000;2,05336;725,67672;0,01157
31,20000;2,07997;734,19963;0,01172
31,60000;2,10669;742,03005;0,01188
32,00000;2,13333;750,88511;0,01203
32,40000;2,16003;758,25495;0,01219
32,80000;2,18664;765,77514;0,01235
33,20000;2,21336;773,53981;0,01250
33,60000;2,24000;780,93782;0,01266
34,00000;2,26666;788,64917;0,01282
34,40000;2,29330;796,11922;0,01297
34,80000;2,32003;803,44202;0,01313
35,20000;2,34666;811,41349;0,01328
35,60000;2,37327;818,99324;0,01344
36,00000;2,40005;825,68619;0,01359
36,40000;2,42666;832,73016;0,01375
36,80000;2,45336;839,93701;0,01390
37,20000;2,47997;847,37269;0,01406
37,60000;2,50666;854,90542;0,01421
38,00000;2,53336;862,02454;0,01437
38,40000;2,56000;868,24130;0,01452
38,80000;2,58666;875,64243;0,01468
39,20000;2,61333;882,92453;0,01484
39,60000;2,63997;890,62331;0,01500
40,00000;2,66669;897,88353;0,01516
40,40000;2,69336;904,36032;0,01531
40,80000;2,72000;911,89621;0,01547
41,20000;2,74666;918,81482;0,01564
41,60000;2,77330;926,40398;0,01579
42,00000;2,80003;932,87444;0,01596
42,40000;2,82669;939,46718;0,01612
42,80000;2,85336;947,16605;0,01628
43,20000;2,88000;953,32637;0,01645
43,60000;2,90663;960,57709;0,01661
44,00000;2,93333;968,62996;0,01678
44,40000;2,96005;974,56779;0,01694
44,80000;2,98663;981,82485;0,01711
45,20000;3,01333;988,38937;0,01728
45,60000;3,03997;995,93149;0,01744
46,00000;3,06666;1002,51175;0,01761
46,40000;3,09333;1010,53957;0,01778
46,80000;3,12002;1015,95726;0,01796
47,20000;3,14666;1023,44612;0,01812
47,60000;3,17330;1030,69684;0,01829
48,00000;3,19997;1037,66872;0,01847
48,40000;3,22666;1044,45573;0,01864
48,80000;3,25342;1051,15501;0,01882
49,20000;3,27997;1057,70072;0,01899
49,60000;3,30666;1064,39060;0,01917
50,00000;3,33333;1071,48783;0,01935
50,40000;3,36002;1077,48518;0,01953
50,80000;3,38669;1084,19387;0,01971
51,20000;3,41333;1091,31299;0,01989
51,60000;3,43997;1097,68324;0,02007
52,00000;3,46666;1105,21596;0,02025
52,40000;3,49330;1111,25102;0,02043
52,80000;3,52002;1116,72506;0,02061
53,20000;3,54672;1123,59663;0,02080
53,60000;3,57327;1130,42127;0,02098
54,00000;3,60000;1136,11156;0,02117
54,40000;3,62666;1143,04274;0,02135
54,80000;3,65339;1149,57588;0,02154
55,20000;3,68000;1154,91524;0,02173
55,60000;3,70663;1161,50482;0,02192
56,00000;3,73336;1168,30124;0,02211
56,40000;3,76002;1173,15492;0,02230
56,80000;3,78666;1179,89490;0,02249
57,20000;3,81336;1185,55389;0,02268
57,60000;3,84000;1191,55757;0,02287
58,00000;3,86663;1198,25369;0,02306
58,40000;3,89333;1204,08498;0,02326
58,80000;3,92000;1210,32987;0,02345
59,20000;3,94669;1215,44050;0,02365
59,60000;3,97330;1221,96116;0,02385
60,00000;4,00000;1227,65144;0,02404
60,40000;4,02669;1233,57056;0,02424
60,80000;4,05336;1238,98508;0,02444
61,20000;4,07994;1244,41218;0,02464
61,60000;4,10669;1250,35318;0,02485
62,00000;4,13330;1256,03406;0,02505
62,40000;4,16002;1261,89040;0,02525
62,80000;4,18663;1267,21412;0,02546
63,20000;4,21336;1273,23652;0,02566
63,60000;4,24000;1278,51013;0,02587
64,00000;4,26666;1283,62700;0,02608
64,40000;4,29333;1289,27659;0,02629
64,80000;4,32002;1294,09889;0,02649
65,20000;4,34669;1299,63569;0,02671
65,60000;4,37330;1304,64602;0,02692
66,00000;4,40005;1309,80052;0,02713
66,40000;4,42666;1315,40932;0,02735
66,80000;4,45336;1320,25043;0,02757
67,20000;4,47997;1324,95686;0,02778
67,60000;4,50666;1329,62884;0,02800
68,00000;4,53336;1334,92434;0,02822
68,40000;4,55999;1339,81556;0,02844
68,80000;4,58666;1344,67864;0,02867
69,20000;4,61333;1349,33488;0,02889
69,60000;4,63997;1353,41464;0,02911
70,00000;4,66666;1358,24326;0,02934
70,40000;4,69336;1363,44470;0,02957
70,80000;4,71999;1367,69051;0,02980
71,20000;4,74666;1372,22148;0,03003
71,60000;4,77330;1376,53304;0,03026
72,00000;4,79999;1380,89163;0,03050
72,40000;4,82669;1385,79551;0,03073
72,80000;4,85333;1389,27670;0,03097
73,20000;4,87999;1393,46300;0,03120
73,60000;4,90666;1398,25400;0,03144
74,00000;4,93336;1401,39051;0,03168
74,40000;4,96005;1404,97517;0,03192
74,80000;4,98663;1409,04859;0,03217
75,20000;5,01333;1413,43232;0,03241
75,60000;5,03997;1417,33335;0,03266
76,00000;5,06669;1420,84286;0,03290
76,40000;5,09333;1425,16065;0,03315
76,80000;5,12002;1428,05288;0,03340
77,20000;5,14666;1432,31433;0,03366
77,60000;5,17333;1435,26290;0,03391
78,00000;5,19999;1437,95451;0,03416
78,40000;5,22666;1442,44470;0,03442
78,80000;5,25341;1445,09552;0,03468
79,20000;5,27997;1448,37936;0,03494
79,60000;5,30666;1451,61934;0,03520
80,00000;5,33333;1454,77159;0,03546
80,40000;5,36005;1457,66055;0,03573
80,80000;5,38669;1460,71566;0,03599
81,20000;5,41333;1463,93999;0,03626
81,60000;5,43999;1466,50942;0,03653
82,00000;5,46666;1469,21976;0,03681
82,40000;5,49330;1472,23100;0,03707
82,80000;5,52002;1474,72834;0,03735
83,20000;5,54672;1476,51751;0,03763
83,60000;5,57327;1480,01127;0,03791
84,00000;5,59999;1482,29562;0,03819
84,40000;5,62666;1485,73918;0,03847
84,80000;5,65338;1487,61617;0,03875
85,20000;5,67999;1489,82210;0,03904
85,60000;5,70660;1492,59511;0,03932
86,00000;5,73336;1493,95820;0,03961
86,40000;5,76002;1496,86290;0,03990
86,80000;5,78666;1497,74654;0,04019
87,20000;5,81336;1500,57916;0,04049
87,60000;5,83999;1501,72599;0,04079
88,00000;5,86663;1503,81597;0,04109
88,40000;5,89330;1505,52364;0,04138
88,80000;5,92002;1507,50708;0,04169
89,20000;5,94669;1509,52190;0,04199
89,60000;5,97333;1511,18264;0,04229
90,00000;5,99996;1512,00043;0,04260
90,40000;6,02669;1514,10922;0,04291
90,80000;6,05335;1515,31873;0,04322
91,20000;6,07996;1516,91362;0,04353
91,60000;6,10672;1518,85636;0,04385
92,00000;6,13330;1519,84338;0,04416
92,40000;6,16002;1521,61065;0,04448
92,80000;6,18663;1521,53550;0,04480
93,20000;6,21335;1522,76689;0,04512
93,60000;6,23999;1524,03908;0,04544
94,00000;6,26666;1524,60625;0,04577
94,40000;6,29330;1525,91290;0,04609
94,80000;6,32002;1526,60534;0,04642
95,20000;6,34669;1527,29154;0,04675
95,60000;6,37330;1528,55748;0,04709
96,00000;6,40002;1529,26249;0,04742
96,40000;6,42666;1529,55707;0,04775
96,80000;6,45338;1529,89859;0,04809
97,20000;6,47996;1531,06730;0,04843
97,60000;6,50666;1531,77548;0,04877
98,00000;6,53335;1531,86955;0,04911
98,40000;6,55999;1532,45227;0,04945
98,80000;6,58669;1532,28315;0,04980
99,20000;6,61333;1532,90350;0,05015
99,60000;6,63996;1533,46127;0,05050
99,94000;6,66264;1533,58663;0,05080
100,25200;6,68330;1533,40800;0,05107
100,65200;6,70996;1533,51454;0,05142
101,05200;6,73666;1533,93447;0,05178
101,45200;6,76333;1534,27906;0,05214
101,85200;6,78999;1534,44204;0,05250
102,25200;6,81666;1534,13182;0,05286
102,65200;6,84330;1534,39194;0,05322
103,05200;6,86999;1534,36689;0,05359
103,45200;6,89669;1534,67394;0,05395
103,85200;6,92333;1533,92190;0,05432
104,25200;6,94996;1534,26975;0,05469
104,65200;6,97666;1533,61792;0,05507
105,05200;7,00333;1533,06648;0,05544
105,45201;7,03002;1533,17302;0,05581
105,85201;7,05672;1532,36771;0,05619
106,25201;7,08330;1532,35830;0,05657
106,65201;7,11002;1532,61526;0,05695
107,05201;7,13666;1531,39634;0,05733
107,45201;7,16335;1530,91690;0,05771
107,85201;7,18996;1529,51321;0,05809
108,25201;7,21663;1530,36863;0,05848
108,65201;7,24335;1529,53826;0,05887
109,05201;7,26999;1529,72313;0,05926
109,45201;7,29666;1528,65779;0,05965
109,85201;7,32332;1527,80227;0,06004
110,25201;7,34999;1527,12241;0,06043
110,65201;7,37663;1526,79645;0,06083
111,05201;7,40338;1525,01045;0,06123
111,45201;7,42999;1524,07670;0,06162
111,85201;7,45671;1523,54399;0,06202
112,25201;7,48324;1522,59460;0,06242
112,65201;7,50999;1522,99255;0,06283
113,05201;7,53674;1522,49429;0,06323
113,45201;7,56333;1521,25033;0,06363
113,85201;7,58999;1520,26331;0,06404
114,25201;7,61663;1518,52742;0,06444
114,65201;7,64332;1518,55247;0,06485
115,05201;7,67002;1518,00718;0,06526
115,45201;7,69671;1515,95166;0,06567
115,85201;7,72332;1515,42844;0,06608
116,25201;7,74996;1514,19071;0,06649
116,65201;7,77663;1513,39481;0,06691
117,05201;7,80332;1512,16649;0,06732
117,45201;7,83008;1511,39256;0,06774
117,85201;7,85669;1510,19245;0,06816
118,25201;7,88327;1508,63826;0,06858
118,65201;7,90999;1508,84818;0,06900
119,05201;7,93669;1506,73632;0,06942
119,45201;7,96338;1505,54245;0,06984
119,85201;7,98996;1504,86566;0,07026
120,25201;8,01666;1503,33652;0,07069
120,65201;8,04332;1502,41526;0,07112
121,05201;8,06999;1501,63509;0,07154
121,45201;8,09669;1499,82711;0,07197
121,85201;8,12335;1498,96229;0,07240
122,25201;8,14999;1497,56474;0,07283
122,65201;8,17663;1495,50298;0,07326
123,05201;8,20335;1496,10462;0,07369
123,45201;8,23002;1494,40942;0,07413
123,85201;8,25671;1492,37271;0,07456
124,25201;8,28324;1491,90575;0,07499
124,65201;8,31002;1490,90309;0,07543
125,05201;8,33669;1489,99440;0,07587
125,45201;8,36335;1487,85431;0,07631
125,85201;8,39002;1487,45319;0,07674
126,25201;8,41663;1485,78305;0,07719
126,65201;8,44332;1484,84614;0,07763
127,05201;8,46999;1483,39858;0,07807
127,45201;8,49668;1482,32067;0,07851
127,85201;8,52335;1480,81975;0,07895
128,25201;8,54999;1480,00503;0,07940
128,65201;8,57660;1477,81791;0,07984
129,05201;8,60332;1477,02824;0,08029
129,45201;8,62999;1475,43969;0,08073
129,85201;8,65671;1474,77537;0,08118
130,25201;8,68332;1473,56587;0,08162
130,65201;8,70996;1471,57926;0,08207
131,05201;8,73666;1471,35053;0,08252
131,45201;8,76335;1469,47047;0,08297
131,85201;8,78999;1467,89439;0,08342
132,25201;8,81666;1466,64726;0,08387
132,65201;8,84332;1465,58816;0,08432
133,05201;8,87002;1464,99593;0,08477
133,45201;8,89669;1462,67097;0,08522
133,85201;8,92332;1462,07558;0,08567
134,25201;8,94999;1461,53979;0,08613
134,65201;8,97666;1458,89204;0,08658
135,05201;9,00335;1457,77343;0,08703
135,45201;9,03002;1457,45380;0,08749
135,85201;9,05668;1455,67711;0,08795
136,25201;9,08327;1453,60595;0,08840
136,65201;9,11002;1453,36157;0,08885
137,05201;9,13666;1451,90759;0,08931
137,45201;9,16338;1449,47609;0,08977
137,85201;9,18996;1448,78672;0,09023
138,25201;9,21663;1447,81852;0,09068
138,65201;9,24338;1446,22987;0,09115
139,05201;9,26999;1445,92281;0,09161
139,45201;9,29668;1443,60717;0,09206
139,85201;9,32332;1443,28754;0,09252
140,25201;9,34999;1441,45768;0,09299
140,65201;9,37663;1440,01003;0,09345
141,05201;9,40341;1439,53683;0,09391
141,45201;9,42999;1438,44644;0,09437
141,85201;9,45668;1437,29644;0,09484
142,25201;9,48327;1435,39133;0,09530
142,65201;9,51002;1434,62364;0,09576
143,05201;9,53674;1432,68406;0,09623
143,45201;9,56332;1431,93519;0,09669
143,85201;9,58999;1431,10482;0,09715
144,25201;9,61663;1429,45349;0,09762
144,65201;9,64335;1428,01525;0,09808
145,05201;9,66999;1428,13427;0,09855
145,45201;9,69666;1425,47088;0,09902
145,85201;9,72335;1425,81873;0,09948
146,25201;9,74999;1424,06086;0,09995
146,65201;9,77663;1422,27169;0,10041
147,05201;9,80332;1421,22200;0,10089
147,45201;9,83005;1419,61770;0,10135
147,85201;9,85668;1419,43907;0,10182
148,25201;9,88326;1417,86607;0,10229
148,65201;9,90999;1416,96362;0,10276
149,05201;9,93665;1415,44398;0,10323
149,45201;9,96341;1414,32527;0,10369
149,85201;9,98996;1412,85574;0,10416
150,25201;10,01666;1411,89378;0,10463
150,65201;10,04332;1411,14173;0,10510
151,05201;10,06999;1409,99174;0,10557
151,45201;10,09674;1409,06740;0,10604
151,85201;10,12335;1407,33151;0,10651
152,25201;10,14993;1406,02486;0,10698
152,65201;10,17660;1405,12558;0,10745
153,05201;10,20338;1404,22313;0,10792
153,45201;10,23005;1402,86637;0,10839
153,85201;10,25671;1401,85114;0,10886
154,25201;10,28321;1400,36587;0,10933
154,65201;10,31002;1399,47291;0,10981
155,05201;10,33668;1398,80860;0,11028
155,45201;10,36335;1397,53325;0,11076
155,85201;10,39002;1396,22977;0,11123
156,25201;10,41660;1395,71903;0,11170
156,65201;10,44335;1394,29644;0,11218
157,05201;10,46999;1392,90830;0,11265
157,45201;10,49668;1392,94285;0,11312
157,85201;10,52332;1391,58918;0,11360
158,25201;10,54999;1391,09408;0,11407
158,65201;10,57663;1389,20462;0,11454
159,05201;10,60335;1389,07926;0,11502
159,45201;10,62999;1387,29634;0,11549
159,85201;10,65665;1387,03315;0,11597
160,25201;10,68332;1385,61996;0,11644
160,65201;10,71002;1384,60472;0,11692
161,05201;10,73668;1383,53314;0,11740
161,45201;10,76332;1382,12312;0,11787
161,85201;10,78996;1381,69071;0,11835
162,25201;10,81665;1380,53130;0,11882
162,65201;10,84332;1379,24971;0,11930
163,05201;10,86999;1378,39429;0,11977
163,45201;10,89665;1377,88672;0,12025
163,85201;10,92332;1376,99684;0,12073
164,25201;10,94999;1375,61811;0,12121
164,65201;10,97665;1375,45830;0,12168
165,05201;11,00332;1374,19235;0,12216
165,45201;11,02999;1373,21474;0,12264
165,85201;11,05671;1372,37189;0,12312
166,25201;11,08329;1371,64183;0,12360
166,65201;11,11002;1371,08406;0,12407
167,05201;11,13665;1370,22547;0,12455
167,45201;11,16338;1367,85656;0,12503
167,85201;11,18999;1367,88795;0,12551
168,25201;11,21663;1367,24561;0,12598
168,65201;11,24338;1366,45287;0,12646
169,05201;11,26999;1365,36863;0,12694
169,45201;11,29668;1364,14981;0,12741
169,85201;11,32332;1362,96218;0,12789
170,25201;11,34999;1362,71780;0,12837
170,65201;11,37665;1361,33907;0,12885
171,05201;11,40338;1360,92864;0,12933
171,45201;11,42999;1359,49664;0,12981
171,85201;11,45671;1358,74143;0,13029
172,25201;11,48324;1357,96443;0,13077
172,65201;11,50999;1357,17159;0,13124
173,05201;11,53671;1356,93345;0,13172
173,45201;11,56335;1355,64879;0,13220
173,85201;11,58999;1355,13181;0,13268
174,25201;11,61662;1354,33273;0,13316
174,65201;11,64335;1353,59010;0,13364
175,05201;11,67002;1353,04173;0,13412
175,45201;11,69668;1351,45001;0,13460
175,85201;11,72332;1351,11781;0,13508
176,25201;11,74999;1350,26872;0,13556
176,65201;11,77660;1348,97456;0,13604
177,05201;11,80335;1349,02159;0,13651
177,45201;11,83007;1347,93743;0,13699
177,85201;11,85668;1346,78436;0,13748
178,25201;11,88326;1346,76863;0,13796
178,65201;11,90999;1345,86310;0,13844
179,05201;11,93668;1345,13304;0,13892
179,45201;11,96338;1343,26862;0,13940
179,85201;11,98996;1343,77619;0,13988
180,25201;12,01665;1342,78610;0,14036
180,65201;12,04332;1341,07210;0,14084
181,05201;12,06999;1341,33212;0,14132
181,45201;12,09671;1340,13835;0,14180
181,85201;12,12335;1339,44899;0,14228
182,25201;12,14996;1337,90728;0,14276
182,65201;12,17662;1337,96688;0,14325
183,05201;12,20335;1337,63161;0,14373
183,45201;12,23001;1336,67588;0,14421
183,85201;12,25671;1335,57292;0,14469
184,25201;12,28323;1335,77036;0,14517
184,65201;12,31002;1334,15349;0,14566
185,05201;12,33665;1334,54204;0,14614
185,45201;12,36335;1333,66464;0,14662
185,85201;12,39004;1332,58672;0,14710
186,25201;12,41662;1331,97578;0,14758
186,65201;12,44332;1331,16106;0,14807
187,05201;12,46999;1330,63775;0,14855
187,45201;12,49668;1330,04244;0,14903
187,85201;12,52335;1329,80430;0,14951
188,25201;12,54999;1328,71075;0,14999
188,65201;12,57660;1327,85533;0,15047
189,05201;12,60335;1327,79265;0,15096
189,45201;12,62999;1327,42599;0,15144
189,85201;12,65671;1325,58672;0,15192
190,25201;12,68332;1324,88795;0,15240
190,65201;12,70999;1324,92557;0,15288
191,05201;12,73668;1324,34899;0,15337
191,45201;12,76332;1324,06699;0,15385
191,85201;12,78999;1323,40901;0,15433
192,25201;12,81665;1322,50655;0,15482
192,65201;12,84332;1321,86422;0,15530
193,05201;12,87001;1321,53202;0,15578
193,45201;12,89668;1320,02169;0,15626
193,85201;12,92332;1320,73304;0,15674
194,25201;12,94998;1318,92813;0,15723
194,65201;12,97665;1318,23877;0,15771
195,05201;13,00332;1318,23253;0,15819
195,45201;13,03001;1317,91290;0,15867
195,85201;13,05668;1316,86954;0,15916
196,25201;13,08329;1316,23344;0,15964
196,65201;13,11001;1315,44378;0,16012
197,05201;13,13665;1315,68508;0,16061
197,45201;13,16338;1314,00870;0,16109
197,85201;13,18996;1313,80819;0,16157
198,25201;13,21662;1314,15594;0,16206
198,65201;13,24337;1313,47599;0,16254
199,05201;13,26998;1312,77414;0,16302
199,45201;13,29665;1312,37619;0,16350
199,85201;13,32332;1312,07220;0,16399
200,25201;13,34998;1311,31392;0,16448
200,65201;13,37665;1310,64029;0,16496
201,05201;13,40335;1309,55297;0,16544
201,45201;13,42999;1309,48406;0,16593
201,85201;13,45671;1308,57537;0,16641
202,25201;13,48323;1307,94551;0,16689
202,65201;13,50999;1308,79153;0,16737
203,05201;13,53674;1307,68856;0,16786
203,45201;13,56335;1306,45717;0,16835
203,85201;13,58998;1306,01218;0,16883
204,25201;13,61662;1306,04981;0,16931
204,65201;13,64335;1305,47322;0,16980
205,05201;13,67001;1304,51750;0,17028
205,45201;13,69668;1304,15717;0,17076
205,85201;13,72335;1303,61514;0,17124
206,25201;13,74998;1302,96340;0,17173
206,65201;13,77662;1301,84786;0,17221
207,05201;13,80335;1302,01085;0,17269
207,45201;13,83007;1300,59132;0,17318
207,85201;13,85668;1301,50635;0,17366
208,25201;13,88326;1300,57568;0,17414
208,65201;13,90998;1300,27803;0,17463
209,05201;13,93668;1299,41320;0,17511
209,45201;13,96337;1298,88365;0,17559
209,85201;13,98996;1298,56719;0,17607
210,25201;14,01665;1298,48253;0,17656
210,65201;14,04332;1298,43242;0,17704
211,05201;14,06998;1297,63344;0,17753
211,45201;14,09668;1296,95656;0,17801
211,85201;14,12332;1296,60564;0,17849
212,25201;14,14998;1296,02598;0,17898
212,65201;14,17662;1295,23007;0,17946
213,05201;14,20337;1295,43375;0,17995
213,45201;14,23001;1293,78559;0,18043
213,85201;14,25671;1294,18978;0,18092
214,25201;14,28323;1292,95206;0,18140
214,65201;14,31004;1293,59132;0,18188
215,05201;14,33665;1292,04337;0,18236
215,45201;14,36337;1291,86790;0,18285
215,85201;14,39001;1292,23447;0,18333
216,25201;14,41662;1290,63018;0,18382
216,65201;14,44332;1290,49858;0,18430
217,05201;14,46998;1291,01565;0,18478
217,45201;14,49668;1290,05993;0,18527
217,85201;14,52335;1290,33569;0,18575
218,25201;14,54998;1289,34234;0,18624
218,65201;14,57662;1288,47752;0,18672
219,05201;14,60335;1288,10778;0,18721
219,45201;14,62998;1288,15789;0,18769
219,85201;14,65671;1287,16147;0,18818
220,25201;14,68332;1286,34050;0,18866
220,65201;14,70998;1286,75103;0,18914
221,05201;14,73671;1286,55359;0,18963
221,45201;14,76335;1286,13375;0,19011
221,85201;14,78998;1285,93948;0,19060
222,25201;14,81665;1285,74204;0,19108
222,65201;14,84332;1285,02138;0,19157
223,05201;14,87001;1284,83651;0,19205
223,45201;14,89668;1284,17220;0,19253
223,85201;14,92332;1283,97169;0,19302
224,25201;14,94998;1283,35124;0,19350
224,65201;14,97665;1282,73396;0,19399
225,05201;15,00332;1283,17894;0,19447
225,45201;15,03001;1282,75901;0,19496
225,85201;15,05671;1281,53386;0,19544
226,25201;15,08326;1280,89776;0,19593
226,65201;15,11004;1280,95103;0,19641
227,05201;15,13665;1280,38079;0,19689
227,45201;15,16337;1279,20257;0,19738
227,85201;15,18995;1279,14622;0,19786
228,25201;15,21662;1279,18068;0,19834
228,65201;15,24337;1278,57588;0,19883
229,05201;15,27001;1279,08355;0,19931
229,45201;15,29668;1278,35656;0,19980
229,85201;15,32332;1278,03385;0,20028
230,25201;15,35001;1277,73611;0,20076
230,65201;15,37665;1277,12199;0,20125
231,05201;15,40337;1276,78672;0,20173
231,45201;15,42998;1276,71156;0,20222
231,85201;15,45671;1275,57097;0,20270
232,25201;15,48323;1275,75584;0,20318
232,65201;15,51001;1275,83733;0,20367
233,05201;15,53673;1275,33590;0,20415
233,45201;15,56334;1275,00063;0,20463
233,85201;15,58998;1274,77506;0,20512
234,25201;15,61662;1274,46800;0,20560
234,65201;15,64334;1274,73744;0,20609
235,05201;15,67004;1274,58703;0,20657
235,45201;15,69668;1273,65645;0,20705
235,85201;15,72331;1273,70032;0,20754
236,25201;15,74998;1272,55348;0,20803
236,65201;15,77662;1272,19623;0,20851
237,05201;15,80334;1272,84173;0,20899
237,45201;15,83010;1271,90482;0,20948
237,85201;15,85668;1272,18999;0,20997
238,25201;15,88326;1270,65778;0,21045
238,65201;15,90998;1270,72670;0,21093
239,05201;15,93670;1271,50062;0,21142
239,45201;15,96340;1271,27506;0,21191
239,85201;15,98995;1269,76781;0,21238
240,25201;16,01665;1271,35338;0,21287
240,65201;16,04331;1269,75216;0,21336
241,05201;16,06998;1269,84306;0,21384
241,45201;16,09670;1270,14071;0,21433
241,85201;16,12334;1269,65819;0,21481
242,25201;16,14995;1268,71187;0,21529
242,65201;16,17665;1268,17608;0,21578
243,05201;16,20337;1269,44827;0,21626
243,45201;16,22998;1268,45492;0,21674
243,85201;16,25673;1267,64337;0,21722
244,25201;16,28323;1267,25174;0,21770
244,65201;16,31001;1267,96300;0,21819
245,05201;16,33665;1267,05747;0,21867
245,45201;16,36334;1267,05747;0,21916
245,85201;16,39004;1266,10175;0,21964
246,25201;16,41662;1266,34305;0,22012
246,65201;16,44331;1265,45625;0,22060
247,05201;16,46998;1266,16126;0,22109
247,45201;16,49668;1265,71944;0,22157
247,85201;16,52334;1265,20246;0,22205
248,25201;16,54998;1264,88907;0,22254
248,65201;16,57662;1264,27496;0,22301
249,05201;16,60337;1264,19347;0,22350
249,45201;16,62998;1264,23109;0,22398
249,85201;16,65668;1263,98355;0,22447
250,25201;16,68331;1264,11831;0,22495
250,65201;16,70998;1263,63263;0,22543
251,05201;16,73668;1263,49162;0,22591
251,45201;16,76334;1262,70829;0,22640
251,85201;16,78998;1263,29735;0,22688
252,25201;16,81665;1262,28519;0,22736
252,65201;16,84331;1261,95624;0,22785
253,05201;16,86998;1262,62363;0,22833
253,45201;16,89667;1261,73059;0,22881
253,85201;16,92334;1261,79643;0,22930
254,25201;16,94998;1261,82772;0,22978
254,65201;16,97665;1261,89664;0,23026
255,05201;17,00331;1262,03774;0,23074
255,45201;17,03004;1261,04122;0,23122
255,85201;17,05668;1260,82823;0,23170
256,25201;17,08329;1260,45840;0,23218
256,65201;17,11001;1260,22026;0,23267
257,05201;17,13665;1261,01617;0,23315
257,45201;17,16337;1259,64684;0,23363
257,85201;17,18998;1259,47455;0,23411
258,25201;17,21665;1258,95441;0,23459
258,65201;17,24337;1259,21136;0,23508
259,05201;17,26998;1259,87250;0,23556
259,45201;17,29668;1259,83171;0,23604
259,85201;17,32331;1258,85727;0,23653
260,25201;17,34998;1258,75389;0,23701
260,65201;17,37665;1258,03007;0,23749
261,05201;17,40343;1258,37475;0,23798
261,45201;17,43001;1257,73866;0,23846
261,85201;17,45670;1256,94899;0,23894
262,25201;17,48323;1257,33130;0,23942
262,65201;17,51001;1257,81382;0,23991
263,05201;17,53676;1256,80175;0,24039
263,45201;17,56331;1257,30308;0,24086
263,85201;17,58998;1257,88907;0,24134
264,25201;17,61662;1256,91136;0,24182
264,65201;17,64337;1256,79234;0,24231
265,05201;17,67001;1256,46964;0,24279
265,45201;17,69667;1256,69837;0,24327
265,85201;17,72334;1255,90870;0,24376
266,25201;17,74998;1256,10298;0,24424
266,65201;17,77662;1254,99060;0,24472
267,05201;17,80337;1255,39172;0,24521
267,45201;17,83006;1254,97179;0,24569
267,85201;17,85665;1255,31340;0,24618
268,25201;17,88328;1254,33570;0,24665
268,65201;17,90998;1255,18488;0,24714
269,05201;17,93667;1254,87782;0,24762
269,45201;17,96340;1255,06585;0,24811
269,85201;17,98995;1254,02240;0,24858
270,25201;18,01662;1253,81555;0,24906
270,65201;18,04331;1253,89388;0,24955
271,05201;18,06998;1253,49285;0,25003
271,45201;18,09667;1254,26678;0,25051
271,85201;18,12334;1253,61504;0,25099
272,25201;18,14998;1253,18579;0,25148
272,65201;18,17662;1252,79408;0,25196
273,05201;18,20334;1253,08866;0,25244
273,45201;18,23004;1252,81606;0,25293
273,85201;18,25673;1252,17680;0,25341
274,25201;18,28323;1251,65982;0,25389
274,65201;18,31004;1251,72557;0,25437
275,05201;18,33667;1253,12936;0,25486
275,45201;18,36334;1252,23324;0,25534
275,85201;18,39001;1252,29275;0,25582
276,25201;18,41662;1251,81954;0,25631
276,65201;18,44331;1251,68795;0,25679
277,05201;18,46998;1251,80390;0,25727
277,45201;18,49667;1252,54653;0,25775
277,85201;18,52334;1250,82945;0,25823
278,25201;18,55001;1250,97986;0,25872
278,65201;18,57662;1250,78866;0,25919
279,05201;18,60334;1251,30573;0,25968
279,45201;18,62998;1251,97312;0,26016
279,85201;18,65670;1250,94848;0,26065
280,25201;18,68331;1250,51299;0,26113
280,65201;18,70998;1250,29674;0,26162
281,05201;18,73667;1250,99868;0,26211
281,45201;18,76334;1250,39387;0,26259
281,85201;18,78998;1250,20584;0,26308
282,25201;18,81664;1250,44715;0,26357
282,65201;18,84331;1250,39387;0,26405
283,05201;18,87001;1250,30298;0,26454
283,45201;18,89667;1249,73590;0,26502
283,85201;18,92331;1249,15615;0,26550
284,25201;18,94998;1249,91443;0,26599
284,65201;18,97665;1249,45072;0,26646
285,05201;19,00331;1249,28150;0,26691
285,45201;19,03001;1249,30656;0,26738
285,85201;19,05670;1249,09980;0,26785
286,25201;19,08328;1248,99009;0,26833
286,65201;19,11001;1249,14050;0,26881
287,05201;19,13664;1248,63917;0,26931
287,45201;19,16340;1248,59847;0,26981
287,85201;19,18998;1248,97128;0,27032
288,25201;19,21664;1248,77701;0,27081
288,65201;19,24337;1248,11586;0,27128
289,05201;19,27001;1248,98069;0,27176
289,45201;19,29667;1248,31013;0,27225
289,85201;19,32331;1248,16606;0,27274
290,25201;19,34998;1248,66739;0,27322
290,65201;19,37665;1248,04378;0,27370
291,05201;19,40340;1247,49858;0,27419
291,45201;19,42998;1247,05993;0,27466
291,85201;19,45670;1247,43907;0,27515
292,25201;19,48325;1247,56750;0,27563
292,65201;19,51001;1247,95921;0,27611
293,05201;19,53673;1247,80880;0,27660
293,45201;19,56334;1247,38896;0,27708
293,85201;19,58998;1247,64899;0,27757
294,25201;19,61662;1247,19152;0,27805
294,65201;19,64334;1246,96279;0,27855
295,05201;19,67001;1247,58324;0,27903
295,45201;19,69670;1247,32312;0,27953
295,85201;19,72334;1246,79673;0,28002
296,25201;19,74998;1247,34510;0,28051
296,65201;19,77662;1246,85001;0,28100
297,05201;19,80334;1247,07557;0,28149
297,45201;19,83006;1246,53978;0,28199
297,85201;19,85667;1246,18569;0,28247
298,25201;19,88328;1246,47394;0,28295
298,65201;19,90998;1245,97261;0,28343
299,05201;19,93667;1246,31412;0,28390
299,45201;19,96340;1246,85001;0,28438
299,85201;19,98998;1246,75911;0,28488
300,25201;20,01664;1246,70267;0,28537
300,65201;20,04331;1246,17005;0,28585
301,05201;20,06998;1246,91268;0,28634
301,45201;20,09670;1245,94439;0,28682
301,85201;20,12334;1245,52138;0,28730
302,25201;20,14995;1246,61187;0,28777
302,65201;20,17662;1246,45829;0,28824
303,05201;20,20337;1245,95379;0,28873
303,45201;20,23003;1246,11361;0,28920
303,85201;20,25673;1246,22332;0,28969
304,25201;20,28320;1245,72506;0,29015
304,65201;20,31003;1244,84776;0,29060
305,05201;20,33667;1245,25195;0,29109
305,45201;20,36337;1245,09530;0,29158
305,85201;20,39003;1245,48376;0,29205
306,25201;20,41662;1244,74121;0,29254
306,65201;20,44331;1245,19868;0,29297
307,05201;20,46998;1244,82261;0,29348
307,45201;20,49670;1245,09530;0,29394
307,85201;20,52334;1245,61228;0,29443
308,25201;20,54998;1245,01688;0,29494
308,65201;20,57662;1245,57158;0,29537
309,05201;20,60334;1245,79398;0,29584
309,45201;20,62998;1245,79091;0,29632
309,85201;20,65670;1244,80696;0,29673
310,25201;20,68331;1244,43723;0,29723
310,65201;20,70998;1244,25553;0,29774
311,05201;20,73667;1245,21432;0,29819
311,45201;20,76331;1244,13958;0,29868
311,85201;20,78998;1245,21749;0,29910
312,25201;20,81664;1244,49367;0,29963
312,65201;20,84331;1243,98917;0,30015
313,05201;20,87000;1244,87905;0,30059
313,45201;20,89667;1244,09879;0,30109
313,85201;20,92331;1245,04510;0,30159
314,25201;20,95000;1244,49991;0,30210
314,65201;20,97667;1244,40901;0,30256
315,05201;21,00331;1244,92915;0,30306
315,45201;21,03001;1244,16146;0,30352
315,85202;21,05670;1244,53437;0,30403
316,25202;21,08328;1243,45021;0,30452
316,65202;21,11003;1244,11760;0,30496
317,05202;21,13664;1244,30563;0,30544
317,45202;21,16337;1243,71024;0,30590
317,85202;21,18998;1243,94838;0,30640
318,25202;21,21664;1244,00798;0,30688
318,65202;21,24337;1244,09255;0,30736
319,05202;21,26997;1244,66913;0,30782
319,45202;21,29670;1244,17720;0,30831
319,85202;21,32334;1244,24919;0,30878
320,25202;21,35000;1243,85441;0,30926
320,65202;21,37664;1243,55052;0,30975
321,05202;21,40337;1243,31238;0,31021
321,45202;21,43000;1242,65114;0,31069
321,85202;21,45670;1242,62925;0,31116
322,25202;21,48325;1242,95829;0,31161
322,65202;21,51000;1243,20583;0,31210
323,05202;21,53673;1243,58805;0,31256
323,45202;21,56334;1243,60062;0,31305
323,85202;21,58998;1242,71698;0,31350
324,25202;21,61661;1244,22414;0,31331
324,65202;21,64334;1245,97577;0,31308
325,05202;21,67003;1247,84326;0,31292
325,45202;21,69667;1247,64582;0,31281
325,85202;21,72331;1248,91177;0,31273
326,25202;21,74998;1249,02455;0,31268
326,65202;21,77661;1247,74612;0,31278
327,05202;21,80334;1245,91934;0,31321
327,45202;21,83006;1244,77567;0,31328
327,85202;21,85667;1245,97577;0,31326
328,25202;21,88325;1245,25819;0,31324
328,65202;21,90997;1244,32761;0,31325
329,05202;21,93670;1244,78508;0,31332
329,45202;21,96339;1243,67271;0,31339
329,85202;21,98995;1244,08631;0,31336
330,25202;22,01664;1245,57465;0,31328
330,65202;22,04331;1245,82537;0,31322
331,05202;22,06998;1245,36157;0,31324
331,45202;22,09670;1244,80072;0,31334
331,85202;22,12336;1244,49367;0,31336
332,25202;22,14997;1244,40594;0,31330
332,65202;22,17664;1244,40594;0,31324
333,05202;22,20337;1244,94797;0,31321
333,45202;22,23003;1244,18028;0,31327
333,85202;22,25673;1243,97660;0,31334
334,25202;22,28322;1244,26801;0,31332
334,65202;22,31003;1244,49991;0,31326
335,05202;22,33664;1245,74387;0,31322
335,45202;22,36336;1245,03262;0,31326
335,85202;22,39003;1243,57864;0,31332
336,25202;22,41661;1244,40277;0,31333
336,65202;22,44331;1244,44664;0,31328
337,05202;22,46998;1244,79756;0,31324
337,45202;22,49670;1244,31821;0,31323
337,85202;22,52336;1244,11136;0,31332
338,25202;22,54997;1244,43723;0,31335
338,65202;22,57661;1243,97660;0,31331
339,05202;22,60337;1244,58447;0,31324
339,45202;22,62997;1244,34009;0,31321
339,85202;22,65670;1244,10512;0,31325
340,25202;22,68331;1243,69152;0,31332
340,65202;22,70997;1243,11810;0,31333
341,05202;22,73670;1245,02946;0,31325
341,45202;22,76334;1244,71299;0,31317
341,85202;22,78997;1245,27700;0,31315
342,25202;22,81664;1244,70983;0,31322
342,65202;22,84331;1243,95154;0,31331
343,05202;22,87003;1244,51248;0,31330
343,45202;22,89670;1243,51596;0,31323
343,85202;22,92331;1244,68794;0,31316
344,25202;22,94997;1244,66913;0,31313
344,65202;22,97667;1244,44040;0,31324
345,05202;23,00334;1244,51872;0,31331
345,45202;23,03000;1244,32128;0,31329
345,85202;23,05670;1243,90768;0,31321
346,25202;23,08328;1244,58764;0,31316
346,65202;23,11003;1244,13641;0,31316
347,05202;23,13664;1244,38712;0,31325
347,45202;23,16336;1243,79490;0,31329
347,85202;23,18997;1243,36872;0,31326
348,25202;23,21664;1245,25819;0,31319
348,65202;23,24336;1244,55942;0,31315
349,05202;23,26997;1245,23630;0,31318
349,45202;23,29667;1243,79490;0,31326
349,85202;23,32331;1244,25860;0,31327
350,25202;23,35000;1244,95737;0,31320
350,65202;23,37664;1244,96995;0,31313
351,05202;23,40336;1245,22373;0,31308
351,45202;23,42997;1245,15481;0,31316
351,85202;23,45673;1244,26177;0,31327
352,25202;23,48325;1243,92333;0,31329
352,65202;23,50997;1243,88263;0,31321
353,05202;23,53675;1245,19551;0,31314
353,45202;23,56333;1245,51831;0,31310
353,85202;23,58997;1244,36831;0,31318
354,25202;23,61661;1244,53120;0,31328
354,65202;23,64336;1244,11760;0,31329
355,05202;23,67003;1244,60645;0,31321
355,45202;23,69667;1245,10154;0,31312
355,85202;23,72331;1245,03570;0,31308
356,25202;23,74997;1245,11095;0,31314
356,65202;23,77664;1243,98293;0,31325
357,05202;23,80336;1244,62210;0,31326
357,45202;23,83006;1244,21474;0,31320
357,85202;23,85667;1244,84776;0,31311
358,25202;23,88328;1245,12343;0,31307
358,65202;23,90997;1245,40543;0,31313
359,05202;23,93670;1244,71923;0,31325
359,45202;23,96339;1244,11760;0,31326
359,85202;23,98997;1244,24295;0,31321
360,25202;24,01664;1245,08273;0,31311
360,65202;24,04330;1245,76893;0,31305
361,05202;24,06997;1245,84101;0,31309
361,45202;24,09669;1244,74745;0,31322
361,85202;24,12336;1243,52854;0,31327
362,25202;24,14997;1245,13283;0,31322
362,65202;24,17661;1244,72864;0,31312
363,05202;24,20336;1245,68744;0,31305
363,45202;24,23003;1245,53079;0,31305
363,85202;24,25672;1244,09879;0,31320
364,25202;24,28322;1244,38396;0,31327
364,65202;24,31000;1243,96412;0,31324
365,05202;24,33667;1245,03570;0,31314
365,45202;24,36336;1245,76585;0,31305
365,85202;24,39003;1246,08232;0,31301
366,25202;24,41664;1245,74704;0,31311
366,65202;24,44331;1245,33344;0,31323
367,05202;24,46997;1245,65931;0,31324
367,45202;24,49670;1245,25195;0,31319
367,85202;24,52336;1245,55901;0,31309
368,25202;24,54997;1245,79398;0,31303
368,65202;24,57661;1246,03212;0,31303
369,05202;24,60336;1245,02946;0,31317
369,45202;24,62997;1244,08314;0,31322
369,85202;24,65670;1244,94797;0,31318
370,25202;24,68331;1245,15789;0,31310
370,65202;24,70997;1246,80297;0,31304
371,05202;24,73669;1246,25461;0,31304
371,45202;24,76333;1245,50574;0,31314
371,85202;24,78997;1245,01688;0,31322
372,25202;24,81664;1244,67537;0,31320
372,65202;24,84330;1245,89428;0,31314
373,05202;24,87003;1246,74970;0,31306
373,45202;24,89669;1246,54919;0,31299
373,85202;24,92330;1246,15123;0,31302
374,25202;24,94997;1245,97577;0,31316
374,65202;24,97667;1245,77833;0,31320
375,05202;25,00333;1245,78457;0,31316
375,45202;25,03000;1246,22015;0,31309
375,85202;25,05669;1246,26402;0,31302
376,25202;25,08328;1247,57690;0,31300
376,65202;25,11003;1246,69326;0,31311
377,05202;25,13664;1246,08856;0,31321
377,45202;25,16336;1245,39603;0,31319
377,85202;25,18997;1246,22015;0,31314
378,25202;25,21664;1246,42700;0,31305
378,65202;25,24336;1246,99725;0,31299
379,05202;25,27000;1247,00982;0,31300
379,45202;25,29667;1246,81862;0,31312
379,85202;25,32331;1245,52455;0,31319
380,25202;25,35000;1246,26402;0,31317
380,65202;25,37664;1247,19469;0,31312
381,05202;25,40336;1247,04111;0,31304
381,45202;25,42997;1247,65839;0,31300
381,85202;25,45672;1247,17588;0,31304
382,25202;25,48325;1246,04469;0,31313
382,65202;25,51000;1246,68702;0,31318
383,05202;25,53672;1246,80921;0,31314
383,45202;25,56330;1247,05369;0,31308
383,85202;25,58997;1247,61770;0,31301
384,25202;25,61661;1247,11320;0,31299
384,65202;25,64336;1247,49858;0,31306
385,05202;25,67003;1247,35134;0,31313
385,45202;25,69667;1247,06933;0,31314
385,85202;25,72333;1247,91851;0,31309
386,25202;25,74997;1247,73989;0,31304
386,65202;25,77661;1247,18212;0,31299
387,05202;25,80333;1248,06575;0,31298
387,45202;25,83008;1247,36382;0,31305
387,85202;25,85667;1247,52056;0,31314
388,25202;25,88328;1247,23855;0,31313
388,65202;25,90997;1248,17854;0,31308
389,05202;25,93669;1247,88713;0,31304
389,45202;25,96339;1248,06259;0,31300
389,85202;25,98994;1248,41984;0,31299
390,25202;26,01664;1248,18478;0,31306
390,65202;26,04333;1247,61453;0,31312
391,05202;26,06997;1248,38538;0,31312
391,45202;26,09669;1248,71749;0,31307
391,85202;26,12333;1248,08764;0,31302
392,25202;26,14997;1249,15931;0,31299
392,65202;26,17661;1249,07158;0,31297
393,05202;26,20336;1249,09980;0,31303
393,45202;26,23000;1248,60778;0,31308
393,85202;26,25672;1248,02506;0,31310
394,25202;26,28322;1247,57066;0,31305
394,65202;26,31003;1248,93058;0,31300
395,05202;26,33664;1248,85533;0,31296
395,45202;26,36336;1248,62660;0,31296
395,85202;26,39003;1248,02813;0,31303
396,25202;26,41664;1248,74571;0,31309
396,65202;26,44330;1248,48876;0,31310
397,05202;26,46997;1249,04653;0,31306
397,45202;26,49669;1249,14050;0,31302
397,85202;26,52336;1248,21300;0,31300
398,25202;26,54997;1249,61678;0,31298
398,65202;26,57661;1249,11861;0,31302
399,05202;26,60336;1249,04336;0,31306
399,45202;26,62997;1248,41668;0,31307
399,85202;26,65666;1249,04653;0,31304
400,25202;26,68330;1249,66381;0,31300
400,65202;26,70997;1248,83344;0,31298
401,05202;26,73669;1249,94265;0,31298
401,45202;26,76333;1249,40369;0,31300
401,85202;26,79000;1249,26586;0,31304
402,25202;26,81664;1249,18753;0,31306
402,65202;26,84330;1249,52588;0,31304
403,05202;26,87000;1251,08324;0,31300
403,45202;26,89666;1249,96463;0,31297
403,85202;26,92333;1250,16514;0,31297
404,25202;26,94997;1249,61361;0,31299
404,65202;26,97664;1249,98344;0,31303
405,05202;27,00333;1250,07117;0,31306
405,45202;27,03003;1249,96146;0,31305
405,85202;27,05669;1249,91760;0,31302
406,25202;27,08327;1250,12752;0,31298
406,65202;27,11003;1250,71350;0,31297
407,05202;27,13666;1250,24971;0,31299
407,45202;27,16339;1249,89571;0,31304
407,85202;27,18997;1249,64816;0,31308
408,25202;27,21663;1250,71034;0,31307
408,65202;27,24336;1250,34377;0,31301
409,05202;27,27000;1251,11146;0,31296
409,45202;27,29666;1250,79500;0,31294
409,85202;27,32333;1250,70410;0,31296
410,25202;27,35000;1251,16780;0,31301
410,65202;27,37664;1250,74172;0,31306
411,05202;27,40339;1249,84551;0,31307
411,45202;27,43000;1251,39654;0,31304
411,85202;27,45672;1250,47844;0,31298
412,25202;27,48324;1252,03896;0,31293
412,65202;27,51000;1251,62527;0,31292
413,05202;27,53675;1252,24888;0,31296
413,45202;27,56333;1250,49101;0,31304
413,85202;27,59000;1251,22424;0,31308
414,25202;27,61661;1251,34019;0,31306
414,65202;27,64336;1251,45297;0,31301
415,05202;27,67003;1252,59981;0,31295
415,45202;27,69666;1251,44674;0,31292
415,85202;27,72333;1251,62844;0,31292
416,25202;27,74997;1251,97936;0,31298
416,65202;27,77664;1250,99868;0,31307
417,05202;27,80333;1252,43999;0,31309
417,45202;27,83008;1251,07067;0,31307
417,85202;27,85666;1251,48427;0,31300
418,25202;27,88327;1252,44940;0,31293
418,65202;27,90997;1252,54337;0,31290
419,05202;27,93666;1252,65932;0,31290
419,45202;27,96339;1251,42792;0,31297
419,85202;27,98997;1251,57833;0,31305
420,25202;28,01663;1252,29592;0,31308
420,65202;28,04333;1252,20502;0,31305
421,05202;28,07000;1252,63426;0,31298
421,45202;28,09669;1252,96330;0,31292
421,85202;28,12336;1253,25778;0,31289
422,25202;28,14997;1253,01965;0,31291
422,65202;28,17661;1252,69378;0,31301
423,05202;28,20336;1252,67189;0,31308
423,45202;28,23000;1252,72200;0,31308
423,85202;28,25672;1252,39929;0,31303
424,25202;28,28322;1252,84418;0,31296
424,65202;28,31002;1253,12312;0,31291
425,05202;28,33666;1254,53314;0,31289
425,45202;28,36336;1253,08549;0,31292
425,85202;28,39000;1252,97895;0,31302
426,25202;28,41664;1253,11678;0,31308
426,65202;28,44330;1253,22025;0,31307
427,05202;28,46997;1254,06003;0,31303
427,45202;28,49666;1253,75604;0,31296
427,85202;28,52336;1253,74040;0,31290
428,25202;28,54997;1254,38897;0,31288
428,65202;28,57663;1254,37956;0,31291
429,05202;28,60336;1254,34510;0,31303
429,45202;28,62997;1253,50226;0,31311
429,85202;28,65672;1253,17639;0,31309
430,25202;28,68330;1254,16024;0,31304
430,65202;28,70997;1254,42659;0,31296
431,05202;28,73669;1255,34469;0,31289
431,45202;28,76336;1255,43866;0,31287
431,85202;28,79000;1255,17547;0,31290
432,25202;28,81663;1254,53314;0,31298
432,65202;28,84330;1253,55553;0,31308
433,05202;28,87000;1254,00359;0,31310
433,45202;28,89669;1254,51116;0,31306
433,85202;28,92333;1254,71484;0,31298
434,25202;28,94997;1255,82097;0,31289
434,65202;28,97663;1256,47588;0,31286
435,05202;29,00333;1255,87741;0,31288
435,45202;29,03002;1255,68621;0,31298
435,85202;29,05669;1253,77169;0,31309
436,25202;29,08327;1254,05062;0,31312
436,65202;29,11003;1254,27302;0,31308
437,05202;29,13666;1255,87741;0,31301
437,45202;29,16338;1256,18754;0,31293
437,85202;29,18997;1256,43825;0,31289
438,25202;29,21663;1256,40696;0,31290
438,65202;29,24336;1255,72383;0,31297
439,05202;29,27000;1255,66432;0,31308
439,45202;29,29666;1255,91811;0,31312
439,85202;29,32333;1254,71801;0,31309
440,25202;29,34997;1255,68621;0,31302
440,65202;29,37663;1256,85809;0,31294
441,05202;29,40339;1256,53222;0,31288
441,45202;29,43000;1256,56985;0,31287
441,85202;29,45672;1256,37250;0,31293
442,25202;29,48322;1256,24081;0,31305
442,65202;29,50999;1255,13477;0,31314
443,05202;29,53675;1256,37557;0,31313
443,45202;29,56336;1256,41003;0,31306
443,85202;29,58997;1256,80175;0,31302
444,25202;29,61661;1256,50093;0,31300
444,65202;29,64335;1257,29684;0,31292
445,05202;29,67002;1258,21494;0,31292
445,45202;29,69666;1257,16832;0,31310
445,85202;29,72333;1255,38856;0,31342
446,25202;29,74997;1253,90328;0,31132
446,65202;29,77660;1252,86933;0,13409
447,05202;29,80333;1253,32987;0,02946
447,45202;29,83005;1253,47087;0,02819
447,85202;29,85666;1253,10430;0,02838
448,25202;29,88327;1252,07026;0,02911
448,65202;29,90999;1253,02598;0,02933
449,05202;29,93669;1254,32005;0,02361
449,45202;29,96338;1252,45564;0,01663
449,85202;29,98997;1252,61545;0,01657
450,25202;30,01663;1252,87240;0,01685
450,65202;30,04333;1252,38989;0,01869
451,05202;30,06997;1252,80032;0,02015
451,45202;30,09669;1252,68130;0,01867
451,85202;30,12336;1252,68437;0,02053
452,25202;30,14997;1252,80665;0,02088
452,65202;30,17660;1253,04163;0,02089
453,05202;30,20336;1253,22025;0,02089
453,45202;30,23002;1253,48344;0,02089
453,85202;30,25675;1253,06360;0,02102
454,25202;30,28321;1253,05727;0,02101
454,65202;30,31002;1253,16698;0,02112
455,05202;30,33666;1252,98835;0,02079
455,45202;30,36335;1252,95706;0,02108
455,85202;30,39002;1253,20144;0,02101
456,25202;30,41663;1253,81248;0,02102
456,65202;30,44330;1253,09490;0,02012
457,05202;30,46997;1253,50533;0,01695
457,45202;30,49669;1253,42393;0,01664
457,85202;30,52335;1253,36749;0,01636
458,25202;30,54996;1254,08815;0,01662
458,65202;30,57660;1252,93825;0,01717
459,05202;30,60336;1254,26371;0,01728
459,45202;30,62999;1253,75921;0,01689
459,85202;30,65669;1253,94408;0,00152
460,25202;30,68330;1254,78692;0,00079
460,65202;30,70997;1254,81831;0,00151
461,05202;30,73669;1254,34510;0,00049
461,45202;30,76336;1253,89080;0,00229
461,85202;30,78999;1254,19470;0,00228
462,25202;30,81663;1254,71801;0,00228
462,65202;30,84333;1254,68355;0,00227
463,05202;30,86999;1254,73365;0,00227
463,45202;30,89669;1254,42976;0,00227
463,85202;30,92333;1255,70819;0,00227
464,25202;30,94999;1255,17864;0,00227
464,65202;30,97666;1254,74622;0,00227
465,05202;31,00333;1255,53580;0,00227
465,45202;31,03002;1253,98478;0,00226
465,85202;31,05672;1254,36708;0,00226
466,25202;31,08327;1254,64285;0,00226
466,65202;31,11002;1255,33212;0,00226
467,05202;31,13666;1255,48253;0,00226
467,45202;31,16339;1255,09398;0,00226
467,85202;31,18996;1254,81514;0,00226
468,25202;31,21663;1255,13477;0,00226
468,65202;31,24335;1255,55154;0,00226
469,05202;31,26999;1255,47005;0,00226
469,45202;31,29669;1255,15042;0,00226
469,85202;31,32333;1255,35727;0,00225
470,25202;31,34999;1255,91811;0,00225
470,65202;31,37663;1255,19112;0,00225
471,05202;31,40338;1255,52639;0,00225
471,45202;31,42999;1255,57659;0,00225
471,85202;31,45672;1255,29142;0,00225
472,25202;31,48324;1255,57343;0,00225
472,65202;31,50999;1256,20952;0,00225
473,05202;31,53674;1255,25072;0,00225
473,45202;31,56335;1255,23815;0,00225
473,85202;31,58999;1255,71126;0,00225
474,25202;31,61660;1255,69561;0,00225
474,65202;31,64335;1255,48886;0,00225
475,05202;31,67002;1255,69561;0,00224
475,45202;31,69668;1256,04346;0,00224
475,85202;31,72332;1256,87690;0,00224
476,25202;31,74996;1256,26903;0,00224
476,65202;31,77663;1255,96821;0,00224
477,05202;31,80335;1256,56361;0,00224
477,45202;31,83005;1256,00584;0,00224
477,85202;31,85666;1255,39796;0,00224
478,25202;31,88326;1255,37599;0,00224
478,65202;31,90996;1256,58242;0,00224
479,05202;31,93669;1256,67322;0,00224
479,45202;31,96341;1255,58907;0,00224
479,85202;31,98996;1257,22792;0,00224
480,25202;32,01663;1256,43201;0,00224
480,65202;32,04332;1256,34428;0,00224
481,05202;32,06999;1256,56044;0,00224
481,45202;32,09668;1257,19337;0,00223
481,85202;32,12335;1257,53498;0,00224
482,25202;32,14996;1256,03406;0,00224
482,65202;32,17663;1256,98037;0,00223
483,05202;32,20338;1257,52240;0,00223
483,45202;32,23002;1257,35318;0,00223
483,85202;32,25671;1256,76412;0,00223
484,25202;32,28321;1257,02107;0,00223
484,65202;32,31005;1257,36576;0,00223
485,05202;32,33663;1257,45032;0,00223
485,45202;32,36335;1257,32506;0,00223
485,85202;32,39002;1257,17148;0,00223
486,25202;32,41663;1257,16208;0,00223
486,65202;32,44330;1257,61954;0,00223
487,05202;32,46996;1257,97363;0,00223
487,45202;32,49669;1258,35594;0,00223
487,85202;32,52335;1257,35635;0,00223
488,25202;32,54999;1258,03631;0,00223
488,65202;32,57660;1258,18048;0,00223
489,05202;32,60335;1258,07701;0,00223
489,45202;32,62999;1257,87966;0,00223
489,85202;32,65669;1257,68846;0,00223
490,25202;32,68332;1258,84470;0,00222
490,65202;32,70996;1257,98620;0,00222
491,05202;32,73669;1258,42802;0,00222
491,45202;32,76333;1257,95798;0,00222
491,85202;32,78999;1259,08284;0,00222
492,25202;32,81663;1258,73815;0,00222
492,65202;32,84332;1258,87608;0,00222
493,05202;32,86999;1258,96698;0,00222
493,45202;32,89669;1258,53764;0,00222
493,85202;32,92332;1259,12363;0,00222
494,25202;32,94999;1259,17373;0,00222
494,65202;32,97666;1258,84162;0,00222
495,05202;33,00332;1258,98886;0,00222
495,45202;33,03002;1258,31207;0,00222
495,85202;33,05668;1258,19920;0,00222
496,25202;33,08327;1258,54388;0,00222
496,65202;33,11002;1259,10798;0,00222
497,05202;33,13666;1259,24582;0,00222
497,45202;33,16341;1258,31831;0,00222
497,85202;33,18996;1258,62854;0,00222
498,25202;33,21663;1258,95757;0,00222
498,65202;33,24338;1259,12363;0,00222
499,05202;33,27002;1259,11105;0,00222
499,45202;33,29665;1258,69121;0,00222
499,85202;33,32332;1258,90430;0,00222
500,25202;33,34999;1259,76913;0,00222
500,65202;33,37663;1258,83846;0,00222
501,05202;33,40335;1259,32414;0,00221
501,45202;33,43002;1258,91371;0,00221
501,85202;33,45671;1258,86984;0,00221
502,25202;33,48324;1259,56228;0,00221
502,65202;33,50999;1258,74449;0,00221
503,05202;33,53674;1258,83529;0,00221
503,45202;33,56332;1259,42444;0,00221
503,85202;33,58999;1258,77270;0,00221
504,25202;33,61660;1259,41504;0,00221
504,65202;33,64335;1259,29285;0,00221
505,05202;33,67002;1259,14868;0,00221
505,45202;33,69668;1258,05195;0,00221
505,85202;33,72332;1258,34960;0,00221
506,25202;33,74996;1257,77619;0,00221
506,65202;33,77663;1256,83937;0,00221
507,05202;33,80335;1256,26596;0,00221
507,45202;33,83005;1255,69254;0,00221
507,85202;33,85666;1255,64551;0,00221
508,25202;33,88327;1254,45789;0,00221
508,65202;33,90999;1253,74040;0,00221
509,05202;33,93668;1253,57118;0,00221
509,45202;33,96338;1252,19245;0,00221
509,85202;33,98996;1251,78825;0,00221
510,25202;34,01665;1251,19295;0,00221
510,65202;34,04332;1248,64858;0,00221
511,05202;34,06999;1248,46995;0,00221
511,45202;34,09669;1247,08815;0,00221
511,85202;34,12335;1244,67853;0,00221
512,25202;34,14996;1243,81995;0,00221
512,65202;34,17663;1241,64848;0,00221
513,05202;34,20335;1239,87496;0,00221
513,45202;34,23002;1237,02046;0,00221
513,85202;34,25671;1232,89367;0,00221
514,25202;34,28320;1229,75400;0,00220
514,65202;34,31002;1223,96657;0,00221
515,05202;34,33666;1215,80400;0,00221
515,31402;34,35415;659,63976;0,00220