File: 02_Appendices/Appendix_C_Experimental_Data/C_1_Materials_Tests/C_1_1_Tensile_tests/C_1_1_2_Quanton Iron/Specimen_RawData_7.csv
Text Inputs : Specimen label;"1"
Dimension : Length;50,00000;mm
Dimension : Final length;100,00000;mm
Test : Rate 1;4,00000;mm/min
General : Unique Identifier;"{A4873304-788C-4C87-8BCD-B24231115660}"

Time;Extension;Load;Strain 1
(sec);(mm);(N);(mm/mm)
0,00000;0,00000;3,56425;0,00007
0,40000;0,02447;14,89159;0,00005
0,80000;0,05291;33,90522;0,00011
1,20000;0,07991;50,86331;0,00021
1,60000;0,10670;66,76859;0,00037
2,00000;0,13333;79,28348;0,00036
2,40000;0,16003;90,45415;0,00087
2,80000;0,18664;94,21426;0,00094
3,20000;0,21333;95,10728;0,00085
3,60000;0,23997;96,86514;0,00086
4,00000;0,26667;97,36961;0,00089
4,40000;0,29330;98,94572;0,00092
4,80000;0,32003;99,24967;0,00093
5,20000;0,34667;99,57869;0,00095
5,60000;0,37328;100,38711;0,00097
6,00000;0,40006;100,34638;0,00098
6,40000;0,42667;102,31102;0,00100
6,80000;0,45336;103,48293;0,00102
7,20000;0,47994;104,42609;0,00103
7,60000;0,50667;108,26454;0,00108
8,00000;0,53336;115,05467;0,00116
8,40000;0,56000;124,30454;0,00126
8,80000;0,58667;134,14037;0,00137
9,20000;0,61333;143,28370;0,00148
9,60000;0,63997;153,97496;0,00160
10,00000;0,66667;163,68231;0,00173
10,40000;0,69333;175,02843;0,00187
10,80000;0,72000;186,24610;0,00200
11,20000;0,74667;196,41719;0,00215
11,60000;0,77330;207,58472;0,00230
12,00000;0,80000;218,08171;0,00244
12,40000;0,82669;228,87634;0,00258
12,80000;0,85336;240,12849;0,00272
13,20000;0,88000;249,82956;0,00286
13,60000;0,90664;259,89413;0,00299
14,00000;0,93333;270,69191;0,00313
14,40000;0,96006;280,88496;0,00327
14,80000;0,98667;290,11916;0,00341
15,20000;1,01333;301,28041;0,00355
15,60000;1,03997;310,06027;0,00369
16,00000;1,06669;320,46952;0,00383
16,40000;1,09333;331,61510;0,00398
16,80000;1,12003;341,31620;0,00414
17,20000;1,14667;352,21111;0,00430
17,60000;1,17330;362,56709;0,00445
18,00000;1,19997;372,68805;0,00461
18,40000;1,22667;382,20740;0,00476
18,80000;1,25339;392,33775;0,00491
19,20000;1,27997;400,15252;0,00505
19,60000;1,30667;409,50268;0,00519
20,00000;1,33333;417,98796;0,00533
20,40000;1,36003;426,73023;0,00547
20,80000;1,38667;436,37492;0,00561
21,20000;1,41333;444,74429;0,00575
21,60000;1,44000;452,37420;0,00589
22,00000;1,46667;460,12630;0,00602
22,40000;1,49330;467,94103;0,00615
22,80000;1,52000;477,00605;0,00629
23,20000;1,54672;484,50432;0,00643
23,60000;1,57327;492,20002;0,00656
24,00000;1,60000;499,81112;0,00670
24,40000;1,62666;507,73867;0,00683
24,80000;1,65339;515,82605;0,00696
25,20000;1,68000;522,91388;0,00709
25,60000;1,70664;530,15836;0,00722
26,00000;1,73333;537,08008;0,00735
26,40000;1,76000;544,54077;0,00748
26,80000;1,78666;552,17068;0,00761
27,20000;1,81336;559,23341;0,00774
27,60000;1,84000;567,63412;0,00787
28,00000;1,86664;573,80381;0,00800
28,40000;1,89330;581,32405;0,00813
28,80000;1,92003;589,06046;0,00826
29,20000;1,94669;595,44011;0,00839
29,60000;1,97333;603,04496;0,00853
30,00000;1,99997;609,77871;0,00866
30,40000;2,02669;617,09522;0,00879
30,80000;2,05336;624,84108;0,00892
31,20000;2,07997;632,02600;0,00905
31,60000;2,10669;639,31434;0,00919
32,00000;2,13333;646,21102;0,00932
32,40000;2,16003;653,60903;0,00945
32,80000;2,18664;659,95110;0,00959
33,20000;2,21336;666,86971;0,00972
33,60000;2,23997;674,89753;0,00986
34,00000;2,26669;681,38684;0,00999
34,40000;2,29333;688,75668;0,01013
34,80000;2,32000;695,75990;0,01027
35,20000;2,34666;703,31460;0,01040
35,60000;2,37330;710,04829;0,01054
36,00000;2,40005;716,67549;0,01068
36,40000;2,42666;724,28659;0,01081
36,80000;2,45336;731,02973;0,01095
37,20000;2,47994;738,24599;0,01109
37,60000;2,50666;745,46542;0,01123
38,00000;2,53336;752,53756;0,01137
38,40000;2,56000;758,83577;0,01151
38,80000;2,58666;766,16169;0,01165
39,20000;2,61333;773,34349;0,01179
39,60000;2,64000;780,52217;0,01193
40,00000;2,66666;787,34048;0,01208
40,40000;2,69336;793,99589;0,01222
40,80000;2,72000;801,35008;0,01236
41,20000;2,74666;807,46962;0,01251
41,60000;2,77330;815,59774;0,01265
42,00000;2,80000;822,42237;0,01280
42,40000;2,82669;828,69856;0,01294
42,80000;2,85336;836,05275;0,01309
43,20000;2,87997;842,77075;0,01323
43,60000;2,90666;850,00899;0,01338
44,00000;2,93333;856,51083;0,01353
44,40000;2,96008;863,07535;0,01367
44,80000;2,98661;870,42637;0,01382
45,20000;3,01333;877,80878;0,01397
45,60000;3,03997;884,15397;0,01412
46,00000;3,06666;891,14150;0,01427
46,40000;3,09333;898,89048;0,01443
46,80000;3,12002;904,43976;0,01458
47,20000;3,14669;912,49263;0,01473
47,60000;3,17330;918,76267;0,01488
48,00000;3,19997;925,28956;0,01504
48,40000;3,22666;932,51206;0,01520
48,80000;3,25342;939,25521;0,01535
49,20000;3,27994;946,94784;0,01551
49,60000;3,30666;953,00470;0,01567
50,00000;3,33333;959,82933;0,01583
50,40000;3,36002;966,66329;0,01599
50,80000;3,38669;973,48476;0,01615
51,20000;3,41333;981,34028;0,01631
51,60000;3,44000;987,13087;0,01647
52,00000;3,46666;993,51993;0,01664
52,40000;3,49330;1001,23435;0,01680
52,80000;3,52000;1008,09028;0,01697
53,20000;3,54672;1014,97760;0,01713
53,60000;3,57327;1021,08466;0,01730
54,00000;3,60000;1027,74631;0,01747
54,40000;3,62666;1034,91247;0,01763
54,80000;3,65336;1041,62423;0,01781
55,20000;3,68000;1049,22280;0,01797
55,60000;3,70666;1054,60603;0,01815
56,00000;3,73336;1061,24580;0,01832
56,40000;3,76000;1068,38373;0,01849
56,80000;3,78663;1074,93885;0,01867
57,20000;3,81336;1080,74509;0,01885
57,60000;3,84000;1088,23394;0,01902
58,00000;3,86663;1094,37229;0,01920
58,40000;3,89333;1100,17229;0,01937
58,80000;3,92002;1106,58957;0,01955
59,20000;3,94669;1113,85593;0,01973
59,60000;3,97333;1119,71861;0,01991
60,00000;4,00000;1126,27689;0,02009
60,40000;4,02666;1132,80378;0,02027
60,80000;4,05336;1139,15522;0,02046
61,20000;4,07997;1146,05194;0,02064
61,60000;4,10669;1151,22525;0,02082
62,00000;4,13330;1157,14734;0,02101
62,40000;4,16002;1163,41114;0,02120
62,80000;4,18663;1169,52127;0,02139
63,20000;4,21336;1175,41524;0,02158
63,60000;4,24000;1182,17096;0,02177
64,00000;4,26663;1188,04611;0,02196
64,40000;4,29333;1194,00276;0,02215
64,80000;4,32002;1199,91237;0,02234
65,20000;4,34666;1205,55880;0,02254
65,60000;4,37327;1211,46534;0,02273
66,00000;4,40005;1217,69141;0,02293
66,40000;4,42666;1224,09305;0,02312
66,80000;4,45336;1228,18528;0,02332
67,20000;4,47994;1234,72158;0,02352
67,60000;4,50666;1240,37433;0,02372
68,00000;4,53336;1246,45624;0,02392
68,40000;4,55999;1251,88334;0,02412
68,80000;4,58666;1256,90317;0,02432
69,20000;4,61333;1262,35839;0,02453
69,60000;4,63997;1268,39336;0,02473
70,00000;4,66666;1272,65174;0,02494
70,40000;4,69336;1278,84652;0,02515
70,80000;4,71997;1284,20470;0,02536
71,20000;4,74666;1289,81974;0,02557
71,60000;4,77333;1294,97740;0,02577
72,00000;4,79999;1300,89642;0,02599
72,40000;4,82669;1305,00123;0,02620
72,80000;4,85336;1309,93947;0,02641
73,20000;4,87999;1315,25695;0,02663
73,60000;4,90666;1321,13518;0,02685
74,00000;4,93333;1324,76687;0,02706
74,40000;4,96005;1330,15011;0,02728
74,80000;4,98666;1334,56197;0,02750
75,20000;5,01333;1339,15553;0,02773
75,60000;5,03997;1344,35389;0,02795
76,00000;5,06666;1348,42424;0,02817
76,40000;5,09333;1352,62301;0,02840
76,80000;5,12002;1357,71483;0,02862
77,20000;5,14666;1362,02332;0,02885
77,60000;5,17330;1366,70461;0,02908
78,00000;5,19997;1370,78436;0,02931
78,40000;5,22666;1374,99571;0,02954
78,80000;5,25341;1378,20113;0,02978
79,20000;5,27994;1383,19898;0,03001
79,60000;5,30666;1387,55757;0,03025
80,00000;5,33333;1391,26442;0,03049
80,40000;5,36002;1395,62618;0,03073
80,80000;5,38669;1398,76269;0,03097
81,20000;5,41333;1403,10246;0,03121
81,60000;5,43999;1407,46422;0,03146
82,00000;5,46666;1410,74490;0,03170
82,40000;5,49330;1413,48038;0,03195
82,80000;5,52002;1418,10216;0,03220
83,20000;5,54672;1421,67117;0,03245
83,60000;5,57327;1425,03018;0,03271
84,00000;5,59999;1428,64622;0,03296
84,40000;5,62666;1431,48508;0,03322
84,80000;5,65338;1434,89111;0,03348
85,20000;5,67999;1438,31596;0,03374
85,60000;5,70663;1441,24255;0,03399
86,00000;5,73336;1444,85226;0,03426
86,40000;5,75999;1448,04521;0,03452
86,80000;5,78666;1450,77752;0,03479
87,20000;5,81336;1452,66699;0,03506
87,60000;5,83996;1457,44234;0,03533
88,00000;5,86663;1459,31924;0,03560
88,40000;5,89333;1462,32424;0,03587
88,80000;5,92002;1465,17875;0,03615
89,20000;5,94672;1467,24684;0,03643
89,60000;5,97333;1468,89193;0,03671
90,00000;5,99996;1472,72404;0,03698
90,40000;6,02669;1475,29971;0,03727
90,80000;6,05335;1477,77516;0,03755
91,20000;6,07996;1479,37946;0,03784
91,60000;6,10672;1482,33119;0,03813
92,00000;6,13333;1483,90103;0,03842
92,40000;6,16002;1485,85942;0,03871
92,80000;6,18663;1488,33171;0,03900
93,20000;6,21335;1489,67588;0,03929
93,60000;6,23999;1491,77220;0,03959
94,00000;6,26666;1493,51433;0,03989
94,40000;6,29330;1495,43826;0,04019
94,80000;6,32002;1497,14602;0,04049
95,20000;6,34666;1498,65001;0,04080
95,60000;6,37333;1501,30093;0,04110
96,00000;6,40005;1501,68007;0,04141
96,40000;6,42666;1503,17475;0,04172
96,80000;6,45335;1504,72885;0,04203
97,20000;6,47996;1506,76565;0,04235
97,60000;6,50666;1507,13539;0,04266
98,00000;6,53335;1509,07813;0,04298
98,40000;6,55996;1510,13089;0,04330
98,80000;6,58669;1510,75758;0,04362
99,20000;6,61335;1511,54725;0,04395
99,60000;6,63996;1513,04817;0,04427
100,00000;6,66666;1513,98191;0,04460
100,40000;6,69335;1514,74960;0,04493
100,80000;6,71999;1515,54858;0,04525
101,20000;6,74669;1516,23171;0,04559
101,60000;6,77330;1517,82036;0,04593
102,00000;6,79999;1517,42240;0,04626
102,40000;6,82669;1518,93273;0,04660
102,80000;6,85335;1519,76617;0,04694
103,20000;6,87999;1520,26443;0,04728
103,60000;6,90663;1520,21740;0,04762
104,00000;6,93333;1521,08222;0,04797
104,40000;6,96005;1520,99133;0,04832
104,80000;6,98666;1521,66821;0,04866
105,20000;7,01333;1521,62435;0,04902
105,60001;7,03996;1521,94388;0,04937
106,00001;7,06669;1522,61443;0,04972
106,40001;7,09333;1523,12834;0,05008
106,80001;7,12002;1522,60195;0,05044
107,10601;7,14042;1522,85267;0,05071
107,50601;7,16697;1523,04377;0,05107
107,90601;7,19352;1523,25369;0,05144
108,30601;7,22025;1523,36648;0,05180
108,70601;7,24700;1522,51422;0,05217
109,10601;7,27358;1522,68345;0,05254
109,50601;7,30028;1522,85891;0,05291
109,90601;7,32686;1522,26044;0,05328
110,30601;7,35364;1523,55134;0,05365
110,70601;7,38025;1522,27608;0,05403
111,10601;7,40700;1522,41709;0,05441
111,50601;7,43361;1522,22905;0,05478
111,90601;7,46025;1521,44888;0,05516
112,30601;7,48686;1520,23304;0,05554
112,70601;7,51361;1520,22364;0,05593
113,10601;7,54036;1519,33692;0,05631
113,50601;7,56694;1519,31811;0,05670
113,90601;7,59355;1518,54418;0,05708
114,30601;7,62025;1517,95819;0,05747
114,70601;7,64697;1517,90185;0,05786
115,10601;7,67364;1516,78314;0,05826
115,50601;7,70028;1516,41974;0,05865
115,90601;7,72691;1515,68335;0,05904
116,30601;7,75361;1515,03161;0,05944
116,70601;7,78022;1513,77199;0,05983
117,10601;7,80697;1513,09827;0,06024
117,50601;7,83367;1512,80686;0,06064
117,90601;7,86022;1511,60359;0,06104
118,30601;7,88686;1510,48498;0,06144
118,70601;7,91361;1509,85513;0,06185
119,10601;7,94030;1508,69265;0,06225
119,50601;7,96697;1507,76831;0,06266
119,90601;7,99349;1507,48314;0,06307
120,30601;8,02025;1506,31750;0,06348
120,70601;8,04694;1505,89766;0,06389
121,10601;8,07361;1504,90124;0,06430
121,50601;8,10033;1502,73601;0,06472
121,90601;8,12688;1502,78620;0,06513
122,30601;8,15358;1501,21320;0,06555
122,70601;8,18025;1499,63703;0,06596
123,10601;8,20700;1498,28028;0,06638
123,50601;8,23364;1498,22077;0,06681
123,90601;8,26025;1496,72609;0,06723
124,30601;8,28686;1496,23100;0,06764
124,70601;8,31364;1495,09991;0,06807
125,10601;8,34030;1493,76821;0,06850
125,50601;8,36694;1492,40512;0,06892
125,90601;8,39361;1492,07609;0,06935
126,30601;8,42022;1490,61596;0,06978
126,70601;8,44694;1489,20901;0,07021
127,10601;8,47361;1488,29408;0,07064
127,50601;8,50030;1486,26361;0,07107
127,90601;8,52691;1486,13825;0,07150
128,30601;8,55358;1484,55277;0,07193
128,70601;8,58022;1483,39337;0,07236
129,10601;8,60697;1482,00840;0,07280
129,50601;8,63361;1481,64807;0,07324
129,90601;8,66022;1479,73979;0,07367
130,30601;8,68694;1478,73089;0,07411
130,70601;8,71361;1477,24561;0,07454
131,10601;8,74030;1476,34633;0,07498
131,50601;8,76694;1475,33109;0,07542
131,90601;8,79355;1473,25676;0,07586
132,30601;8,82027;1472,18825;0,07630
132,70601;8,84694;1470,68426;0,07674
133,10601;8,87364;1469,36821;0,07719
133,50601;8,90030;1468,10226;0,07763
133,90601;8,92688;1466,91781;0,07807
134,30601;8,95361;1465,87752;0,07852
134,70601;8,98025;1464,91872;0,07897
135,10601;9,00697;1462,49030;0,07941
135,50601;9,03361;1462,16759;0,07985
135,90601;9,06028;1460,79203;0,08031
136,30601;9,08688;1459,24091;0,08075
136,70601;9,11364;1458,25082;0,08120
137,10601;9,14027;1456,76238;0,08165
137,50601;9,16697;1454,56586;0,08210
137,90601;9,19352;1454,23058;0,08255
138,30601;9,22022;1452,12496;0,08300
138,70601;9,24700;1452,19704;0,08346
139,10601;9,27361;1449,72159;0,08391
139,50601;9,30030;1448,80665;0,08436
139,90601;9,32686;1447,40604;0,08481
140,30601;9,35361;1446,61320;0,08527
140,70601;9,38027;1445,77660;0,08573
141,10601;9,40697;1443,67097;0,08618
141,50601;9,43361;1442,87823;0,08664
141,90601;9,46022;1441,06708;0,08710
142,30601;9,48686;1439,28733;0,08755
142,70601;9,51364;1438,56658;0,08801
143,10601;9,54033;1437,30380;0,08847
143,50601;9,56694;1436,51422;0,08893
143,90601;9,59355;1434,74694;0,08938
144,30601;9,62022;1433,60952;0,08984
144,70601;9,64697;1432,62250;0,09030
145,10601;9,67364;1431,22813;0,09076
145,50601;9,70030;1430,25676;0,09122
145,90601;9,72694;1428,84050;0,09169
146,30601;9,75361;1427,89101;0,09215
146,70601;9,78024;1426,27414;0,09261
147,10601;9,80697;1425,10226;0,09308
147,50601;9,83366;1423,76432;0,09354
147,90601;9,86022;1422,68958;0,09400
148,30601;9,88685;1422,02210;0,09446
148,70601;9,91364;1420,94735;0,09493
149,10601;9,94030;1418,86678;0,09539
149,50601;9,96700;1416,95533;0,09586
149,90601;9,99352;1416,43211;0,09632
150,30601;10,02027;1415,30409;0,09679
150,70601;10,04697;1413,99112;0,09725
151,10601;10,07361;1412,79418;0,09772
151,50601;10,10030;1411,39664;0,09818
151,90601;10,12688;1410,50052;0,09865
152,30601;10,15358;1408,99336;0,09911
152,70601;10,18025;1408,15042;0,09958
153,10601;10,20700;1406,29234;0,10005
153,50601;10,23364;1405,19245;0,10051
153,90601;10,26025;1404,28068;0,10098
154,30601;10,28683;1403,31872;0,10145
154,70601;10,31363;1402,76095;0,10192
155,10601;10,34027;1401,58590;0,10239
155,50601;10,36697;1399,53662;0,10286
155,90601;10,39363;1398,88180;0,10333
156,30601;10,42022;1397,43099;0,10379
156,70601;10,44697;1396,91401;0,10427
157,10601;10,47358;1395,34418;0,10473
157,50601;10,50033;1394,09387;0,10520
157,90601;10,52688;1393,36064;0,10568
158,30601;10,55361;1391,92874;0,10615
158,70601;10,58024;1390,80379;0,10661
159,10601;10,60697;1389,72281;0,10709
159,50601;10,63363;1388,93938;0,10756
159,90601;10,66024;1387,70798;0,10803
160,30601;10,68694;1386,83058;0,10850
160,70601;10,71361;1385,85921;0,10897
161,10601;10,74030;1384,13897;0,10945
161,50601;10,76694;1383,49356;0,10992
161,90601;10,79355;1382,76974;0,11039
162,30601;10,82027;1382,05839;0,11087
162,70601;10,84694;1380,67659;0,11134
163,10601;10,87363;1379,90573;0,11181
163,50601;10,90030;1378,16984;0,11229
163,90601;10,92688;1377,22036;0,11277
164,30601;10,95363;1376,31483;0,11324
164,70601;10,98027;1375,92312;0,11371
165,10601;11,00694;1374,14336;0,11419
165,50601;11,03363;1373,13129;0,11466
165,90601;11,06027;1372,56412;0,11514
166,30601;11,08688;1371,54888;0,11561
166,70601;11,11363;1370,12322;0,11609
167,10601;11,14027;1370,47097;0,11657
167,50601;11,16697;1368,11156;0,11704
167,90601;11,19352;1367,30308;0,11751
168,30601;11,22021;1366,31606;0,11799
168,70601;11,24697;1365,57659;0,11846
169,10601;11,27358;1365,62362;0,11894
169,50601;11,30030;1363,74980;0,11941
169,90601;11,32685;1362,11729;0,11989
170,30601;11,35363;1361,89796;0,12037
170,70601;11,38027;1360,72291;0,12085
171,10601;11,40697;1360,55686;0,12132
171,50601;11,43361;1359,31596;0,12180
171,90601;11,46024;1358,46371;0,12228
172,30601;11,48685;1357,13825;0,12275
172,70601;11,51363;1356,66830;0,12322
173,10601;11,54033;1354,61269;0,12370
173,50601;11,56694;1354,40594;0,12418
173,90601;11,59358;1354,41534;0,12465
174,30601;11,62024;1352,80164;0,12513
174,70601;11,64697;1352,31903;0,12561
175,10601;11,67363;1351,07506;0,12608
175,50601;11,70030;1350,20399;0,12656
175,90601;11,72691;1348,90052;0,12704
176,30601;11,75360;1348,66238;0,12752
176,70601;11,78024;1347,44970;0,12800
177,10601;11,80697;1347,03927;0,12847
177,50601;11,83366;1345,75451;0,12895
177,90601;11,86021;1345,60410;0,12943
178,30601;11,88685;1344,66728;0,12990
178,70601;11,91360;1344,01862;0,13039
179,10601;11,94033;1342,93763;0,13086
179,50601;11,96697;1341,53068;0,13135
179,90601;11,99352;1341,09827;0,13182
180,30601;12,02024;1340,82884;0,13230
180,70601;12,04694;1339,55348;0,13278
181,10601;12,07363;1339,14305;0,13326
181,50601;12,10033;1337,63580;0,13374
181,90601;12,12688;1336,73027;0,13422
182,30601;12,15358;1336,81484;0,13469
182,70601;12,18021;1335,65860;0,13517
183,10601;12,20699;1334,59326;0,13565
183,50601;12,23363;1334,70604;0,13613
183,90601;12,26027;1333,33681;0,13661
184,30601;12,28685;1332,82598;0,13709
184,70601;12,31363;1332,05522;0,13758
185,10601;12,34027;1331,58518;0,13805
185,50601;12,36694;1330,57311;0,13853
185,90601;12,39360;1330,01218;0,13902
186,30601;12,42021;1329,26023;0,13949
186,70601;12,44694;1328,97189;0,13997
187,10601;12,47358;1328,20737;0,14045
187,50601;12,50030;1327,22659;0,14093
187,90601;12,52691;1326,30225;0,14141
188,30601;12,55357;1326,17690;0,14189
188,70601;12,58024;1324,66657;0,14237
189,10601;12,60697;1324,39081;0,14285
189,50601;12,63360;1323,74223;0,14333
189,90601;12,66021;1322,61422;0,14381
190,30601;12,68694;1321,94366;0,14429
190,70601;12,71360;1321,27935;0,14477
191,10601;12,74030;1320,32055;0,14525
191,50601;12,76697;1319,91319;0,14573
191,90601;12,79352;1319,01391;0,14621
192,30601;12,82024;1318,54387;0,14669
192,70601;12,84694;1317,97045;0,14717
193,10601;12,87363;1316,84551;0,14765
193,50601;12,90030;1315,54520;0,14813
193,90601;12,92688;1316,01207;0,14861
194,30601;12,95360;1315,48252;0,14910
194,70601;12,98024;1314,50798;0,14958
195,10601;13,00696;1314,41085;0,15006
195,50601;13,03363;1313,50532;0,15054
195,90601;13,06027;1312,47127;0,15102
196,30601;13,08685;1311,42782;0,15150
196,70601;13,11363;1311,09571;0,15198
197,10601;13,14027;1310,58814;0,15247
197,50601;13,16696;1308,88354;0,15295
197,90601;13,19352;1309,04336;0,15343
198,30601;13,22024;1308,66105;0,15391
198,70601;13,24699;1307,66463;0,15440
199,10601;13,27363;1308,35082;0,15488
199,50601;13,30030;1307,02853;0,15536
199,90601;13,32688;1307,16013;0,15584
200,30601;13,35363;1305,93497;0,15633
200,70601;13,38027;1305,51513;0,15681
201,10601;13,40699;1305,19234;0,15729
201,50601;13,43363;1304,90717;0,15777
201,90601;13,46024;1304,27424;0,15825
202,30601;13,48685;1302,81411;0,15873
202,70601;13,51363;1302,54459;0,15922
203,10601;13,54036;1301,96493;0,15970
203,50601;13,56694;1301,36646;0,16018
203,90601;13,59355;1300,55174;0,16066
204,30601;13,62021;1299,89684;0,16115
204,70601;13,64699;1299,64305;0,16163
205,10601;13,67363;1299,20123;0,16211
205,50601;13,70027;1299,48324;0,16260
205,90601;13,72694;1298,12332;0,16308
206,30601;13,75360;1297,57188;0,16356
206,70601;13,78024;1296,77281;0,16404
207,10601;13,80696;1296,41248;0,16452
207,50601;13,83366;1295,49755;0,16501
207,90601;13,86021;1295,40041;0,16549
208,30601;13,88688;1294,37577;0,16596
208,70601;13,91360;1294,26923;0,16645
209,10601;13,94030;1294,35072;0,16693
209,50601;13,96699;1293,76156;0,16742
209,90601;13,99352;1291,95675;0,16790
210,30601;14,02027;1291,35828;0,16838
210,70601;14,04696;1291,47107;0,16886
211,10601;14,07363;1291,31125;0,16935
211,50601;14,10033;1289,92312;0,16983
211,90601;14,12688;1289,81974;0,17031
212,30601;14,15357;1289,81974;0,17080
212,70601;14,18024;1289,06146;0,17128
213,10601;14,20699;1287,85195;0,17176
213,50601;14,23363;1288,27812;0,17224
213,90601;14,26027;1286,93702;0,17273
214,30601;14,28685;1286,53906;0,17321
214,70601;14,31363;1286,88999;0,17369
215,10601;14,34027;1285,69929;0,17418
215,50601;14,36696;1285,28569;0,17466
215,90601;14,39363;1285,18539;0,17514
216,30601;14,42024;1284,51483;0,17562
216,70601;14,44694;1284,64019;0,17611
217,10601;14,47360;1283,50593;0,17660
217,50601;14,50030;1282,32148;0,17708
217,90601;14,52691;1282,80092;0,17756
218,30601;14,55357;1282,07710;0,17805
218,70601;14,58024;1281,65716;0,17853
219,10601;14,60696;1280,98037;0,17901
219,50601;14,63360;1281,49111;0,17949
219,90601;14,66021;1280,01217;0,17998
220,30601;14,68694;1279,78344;0,18046
220,70601;14,71360;1280,04029;0,18095
221,10601;14,74030;1278,87782;0,18143
221,50601;14,76694;1278,97188;0,18191
221,90601;14,79355;1278,36084;0,18240
222,30601;14,82027;1277,64009;0,18288
222,70601;14,84693;1277,86892;0,18337
223,10601;14,87363;1276,50267;0,18385
223,50601;14,90030;1276,59356;0,18434
223,90601;14,92685;1276,41186;0,18482
224,30601;14,95363;1274,93599;0,18530
224,70601;14,98027;1274,60072;0,18578
225,10601;15,00696;1274,89213;0,18627
225,50601;15,03363;1273,97720;0,18675
225,90601;15,06024;1273,63876;0,18723
226,30601;15,08691;1273,40378;0,18772
226,70601;15,11363;1273,07475;0,18820
227,10601;15,14027;1272,52322;0,18868
227,50601;15,16696;1272,40419;0,18917
227,90601;15,19354;1271,65839;0,18965
228,30601;15,22024;1270,95031;0,19013
228,70601;15,24699;1271,58323;0,19062
229,10601;15,27360;1271,63026;0,19110
229,50601;15,30027;1269,96636;0,19158
229,90601;15,32688;1269,52771;0,19207
230,30601;15,35363;1269,88487;0,19255
230,70601;15,38027;1269,33968;0,19303
231,10601;15,40696;1269,30522;0,19352
231,50601;15,43363;1268,87280;0,19400
231,90601;15,46027;1268,48109;0,19448
232,30601;15,48685;1267,75419;0,19496
232,70601;15,51360;1267,97352;0,19545
233,10601;15,54033;1266,72015;0,19593
233,50601;15,56693;1267,53487;0,19641
233,90601;15,59357;1265,93988;0,19690
234,30601;15,62024;1266,40992;0,19738
234,70601;15,64696;1266,08405;0,19787
235,10601;15,67363;1264,49540;0,19835
235,50601;15,70030;1265,01555;0,19884
235,90601;15,72690;1265,47301;0,19932
236,30601;15,75360;1264,63957;0,19980
236,70601;15,78021;1263,63374;0,20029
237,10601;15,80696;1263,94704;0,20077
237,50601;15,83366;1263,19192;0,20126
237,90601;15,86024;1263,11984;0,20175
238,30601;15,88685;1262,34274;0,20222
238,70601;15,91360;1263,06657;0,20271
239,10601;15,94029;1262,21115;0,20320
239,50601;15,96699;1262,30204;0,20368
239,90601;15,99351;1261,50930;0,20416
240,30601;16,02027;1261,39959;0,20465
240,70601;16,04693;1261,02669;0,20513
241,10601;16,07360;1261,12383;0,20561
241,50601;16,10032;1259,92997;0,20610
241,90601;16,12690;1260,25276;0,20658
242,30601;16,15360;1259,63548;0,20707
242,70601;16,18024;1259,84857;0,20755
243,10601;16,20696;1259,02761;0,20803
243,50601;16,23363;1259,10593;0,20851
243,90601;16,26024;1258,77382;0,20900
244,30601;16,28685;1258,08446;0,20948
244,70601;16,31363;1257,40450;0,20996
245,10601;16,34030;1256,76524;0,21045
245,50601;16,36693;1257,68017;0,21093
245,90601;16,39360;1257,65204;0,21141
246,30601;16,42021;1256,11667;0,21190
246,70601;16,44696;1255,90358;0,21238
247,10601;16,47360;1255,74693;0,21287
247,50601;16,50029;1255,22045;0,21335
247,90601;16,52693;1255,90665;0,21383
248,30601;16,55360;1254,95410;0,21432
248,70601;16,58024;1254,78804;0,21480
249,10601;16,60696;1254,12373;0,21528
249,50601;16,63363;1254,70348;0,21576
249,90601;16,66024;1253,67260;0,21625
250,30601;16,68693;1253,80727;0,21673
250,70601;16,71360;1253,66319;0,21722
251,10601;16,74029;1253,12107;0,21770
251,50601;16,76693;1253,62873;0,21818
251,90601;16,79357;1252,70747;0,21867
252,30601;16,82027;1252,31268;0,21915
252,70601;16,84690;1252,48497;0,21964
253,10601;16,87363;1252,14662;0,22012
253,50601;16,90029;1251,07495;0,22060
253,90601;16,92690;1251,81759;0,22108
254,30601;16,95360;1251,38517;0,22157
254,70601;16,98024;1251,16585;0,22205
255,10601;17,00693;1251,40399;0,22253
255,50601;17,03363;1250,51094;0,22302
255,90601;17,06026;1250,43886;0,22350
256,30601;17,08687;1249,47689;0,22398
256,70601;17,11366;1249,26381;0,22447
257,10601;17,14027;1249,68681;0,22495
257,50601;17,16696;1250,08794;0,22543
257,90601;17,19351;1249,97199;0,22592
258,30601;17,22024;1249,05705;0,22640
258,70601;17,24699;1248,68415;0,22688
259,10601;17,27360;1248,15777;0,22737
259,50601;17,30032;1248,44918;0,22786
259,90601;17,32687;1248,27996;0,22834
260,30601;17,35363;1249,13221;0,22882
260,70601;17,38024;1247,82249;0,22930
261,10601;17,40699;1248,31442;0,22978
261,50601;17,43363;1247,86943;0,23027
261,90601;17,46024;1247,11432;0,23075
262,30601;17,48685;1247,21453;0,23123
262,70601;17,51362;1247,47148;0,23171
263,10601;17,54035;1246,30583;0,23219
263,50601;17,56693;1247,75348;0,23267
263,90601;17,59357;1246,75082;0,23315
264,30601;17,62024;1246,37485;0,23363
264,70601;17,64696;1245,98313;0,23412
265,10601;17,67363;1245,76697;0,23459
265,50601;17,70026;1245,82332;0,23508
265,90601;17,72690;1245,67915;0,23556
266,30601;17,75360;1244,96790;0,23604
266,70601;17,78024;1244,98354;0,23652
267,10601;17,80696;1244,83006;0,23700
267,50601;17,83365;1244,52300;0,23749
267,90601;17,86024;1245,35961;0,23797
268,30601;17,88687;1245,09009;0,23845
268,70601;17,91363;1244,39765;0,23893
269,10601;17,94029;1244,56370;0,23942
269,50601;17,96696;1243,81166;0,23989
269,90601;17,99351;1243,59857;0,24037
270,30601;18,02026;1244,65460;0,24086
270,70601;18,04696;1244,09059;0,24134
271,10601;18,07360;1244,04039;0,24182
271,50601;18,10032;1242,79018;0,24230
271,90601;18,12687;1243,13170;0,24278
272,30601;18,15360;1244,04663;0,24327
272,70601;18,18023;1243,02516;0,24376
273,10601;18,20699;1242,72434;0,24424
273,50601;18,23362;1243,01268;0,24472
273,90601;18,26026;1242,84653;0,24521
274,30601;18,28684;1242,79335;0,24569
274,70601;18,31363;1241,99744;0,24618
275,10601;18,34026;1242,54264;0,24666
275,50601;18,36693;1242,10399;0,24714
275,90601;18,39362;1241,69039;0,24763
276,30601;18,42023;1242,45491;0,24811
276,70601;18,44696;1241,42710;0,24859
277,10601;18,47360;1242,42669;0,24907
277,50601;18,50032;1240,99161;0,24956
277,90601;18,52693;1241,01983;0,25005
278,30601;18,55360;1241,27669;0,25053
278,70601;18,58024;1240,98221;0,25101
279,10601;18,60696;1240,81923;0,25149
279,50601;18,63362;1241,12004;0,25197
279,90601;18,66023;1240,44633;0,25246
280,30601;18,68693;1240,40246;0,25294
280,70601;18,71360;1241,01043;0,25342
281,10601;18,74029;1240,56544;0,25390
281,50601;18,76693;1239,64734;0,25439
281,90601;18,79357;1239,99827;0,25487
282,30601;18,82026;1240,19254;0,25535
282,70601;18,84693;1239,79775;0,25583
283,10601;18,87362;1239,53456;0,25631
283,50601;18,90032;1239,23374;0,25679
283,90601;18,92690;1239,22750;0,25727
284,30601;18,95360;1239,37475;0,25776
284,70601;18,98026;1238,87025;0,25824
285,10601;19,00696;1238,59448;0,25871
285,50601;19,03362;1239,02690;0,25920
285,90601;19,06026;1238,74806;0,25968
286,30601;19,08687;1238,15900;0,26017
286,70601;19,11365;1238,50675;0,26066
287,10601;19,14026;1238,85460;0,26115
287,50601;19,16696;1237,84877;0,26164
287,90601;19,19351;1238,31248;0,26212
288,30601;19,22023;1237,27843;0,26261
288,70601;19,24699;1237,33170;0,26310
289,10601;19,27360;1237,94908;0,26359
289,50601;19,30029;1237,46023;0,26408
289,90601;19,32687;1237,85501;0,26455
290,30601;19,35362;1237,92086;0,26504
290,70601;19,38026;1237,72658;0,26553
291,10601;19,40699;1237,79867;0,26597
291,50601;19,43363;1238,39080;0,26642
291,90601;19,46024;1237,85818;0,26690
292,30601;19,48684;1237,28160;0,26739
292,70601;19,51360;1237,66074;0,26787
293,10601;19,54035;1237,43201;0,26836
293,50601;19,56693;1237,11238;0,26885
293,90601;19,59357;1237,07484;0,26935
294,30601;19,62023;1237,29724;0,26985
294,70601;19,64696;1237,59182;0,27034
295,10601;19,67362;1237,41953;0,27082
295,50601;19,70026;1237,04663;0,27131
295,90601;19,72693;1236,93692;0,27180
296,30601;19,75360;1237,12495;0,27229
296,70601;19,78023;1236,65491;0,27278
297,10601;19,80696;1236,78027;0,27326
297,50601;19,83365;1237,02781;0,27374
297,90601;19,86023;1237,13119;0,27422
298,30601;19,88690;1236,96830;0,27471
298,70601;19,91362;1236,76145;0,27520
299,10601;19,94029;1236,72383;0,27567
299,50601;19,96699;1236,72383;0,27615
299,90601;19,99351;1236,53589;0,27664
300,30601;20,02026;1236,76769;0,27712
300,70601;20,04696;1236,90562;0,27761
301,10601;20,07362;1236,70818;0,27810
301,50601;20,10032;1235,66166;0,27859
301,90601;20,12690;1236,61105;0,27908
302,30601;20,15359;1236,01574;0,27957
302,70601;20,18023;1236,44816;0,28005
303,10601;20,20699;1236,03763;0,28053
303,50601;20,23362;1236,03139;0,28102
303,90601;20,26026;1236,31340;0,28150
304,30601;20,28684;1235,74622;0,28199
304,70601;20,31362;1236,26953;0,28248
305,10601;20,34029;1236,16923;0,28296
305,50601;20,36693;1235,87474;0,28343
305,90601;20,39362;1235,94673;0,28391
306,30601;20,42020;1235,43600;0,28437
306,70601;20,44696;1235,89346;0,28488
307,10601;20,47359;1235,78701;0,28536
307,50601;20,50032;1235,03497;0,28585
307,90601;20,52693;1235,81830;0,28629
308,30601;20,55357;1235,51749;0,28678
308,70601;20,58026;1236,65184;0,28727
309,10601;20,60696;1235,30757;0,28775
309,50601;20,63362;1236,07209;0,28825
309,90601;20,66023;1235,29499;0,28871
310,30601;20,68693;1235,19786;0,28920
310,70601;20,71359;1235,40470;0,28966
311,10601;20,74029;1235,78701;0,29016
311,50601;20,76696;1235,87158;0,29063
311,90601;20,79354;1235,09448;0,29112
312,30601;20,82023;1235,35143;0,29159
312,70601;20,84693;1235,30133;0,29208
313,10601;20,87362;1234,66831;0,29251
313,50601;20,90032;1234,75604;0,29301
313,90601;20,92690;1235,55819;0,29346
314,30601;20,95362;1235,58957;0,29395
314,70601;20,98023;1235,72433;0,29445
315,10601;21,00696;1234,63701;0,29489
315,50601;21,03359;1235,28875;0,29538
315,90602;21,06026;1235,40154;0,29586
316,30602;21,08687;1234,90337;0,29630
316,70602;21,11365;1235,12270;0,29680
317,10602;21,14029;1235,01616;0,29726
317,50602;21,16696;1234,51483;0,29778
317,90602;21,19351;1235,35143;0,29828
318,30602;21,22020;1233,83794;0,29870
318,70602;21,24701;1234,94407;0,29921
319,10602;21,27359;1235,05685;0,29971
319,50602;21,30029;1234,46155;0,30016
319,90602;21,32687;1234,35501;0,30066
320,30602;21,35362;1234,90961;0,30111
320,70602;21,38026;1234,01033;0,30160
321,10602;21,40696;1235,01932;0,30211
321,50602;21,43362;1234,26095;0,30256
321,90602;21,46023;1234,45522;0,30304
322,30602;21,48687;1233,65307;0,30356
322,70602;21,51362;1234,63701;0,30405
323,10602;21,54035;1233,81922;0,30448
323,50602;21,56693;1233,75962;0,30495
323,90602;21,59357;1234,22965;0,30538
324,30602;21,62023;1233,47454;0,30588
324,70602;21,64696;1234,06360;0,30633
325,10602;21,67362;1233,93824;0,30683
325,50602;21,70029;1234,11994;0,30733
325,90602;21,72693;1233,60297;0,30778
326,30602;21,75359;1233,59039;0,30829
326,70602;21,78023;1234,27035;0,30876
327,10602;21,80696;1234,31114;0,30924
327,50602;21,83365;1233,35859;0,30967
327,90602;21,86020;1233,76595;0,31018
328,30602;21,88687;1233,29898;0,31066
328,70602;21,91359;1234,74356;0,31113
329,10602;21,94029;1234,19836;0,31162
329,50602;21,96698;1233,23640;0,31208
329,90602;21,99351;1233,78467;0,31255
330,30602;22,02026;1234,14816;0,31303
330,70602;22,04695;1235,69295;0,31279
331,10602;22,07359;1236,91186;0,31253
331,50602;22,10035;1238,42843;0,31229
331,90602;22,12690;1239,91370;0,31212
332,30602;22,15359;1241,13262;0,31200
332,70602;22,18023;1241,62454;0,31190
333,10602;22,20698;1242,65235;0,31182
333,50602;22,23362;1243,16616;0,31177
333,90602;22,26026;1243,53282;0,31176
334,30602;22,28684;1242,79335;0,31178
334,70602;22,31362;1242,47372;0,31185
335,10602;22,34029;1241,45532;0,31217
335,50602;22,36695;1238,47546;0,31251
335,90602;22,39362;1238,25297;0,31262
336,30602;22,42020;1238,28119;0,31266
336,70602;22,44695;1237,81115;0,31268
337,10602;22,47359;1238,11197;0,31267
337,50602;22,50032;1238,35951;0,31266
337,90602;22,52692;1238,05245;0,31263
338,30602;22,55357;1238,27802;0,31261
338,70602;22,58026;1238,57884;0,31262
339,10602;22,60698;1238,46605;0,31262
339,50602;22,63362;1237,86442;0,31262
339,90602;22,66020;1238,66657;0,31259
340,30602;22,68693;1238,91095;0,31255
340,70602;22,71359;1238,68538;0,31256
341,10602;22,74029;1238,71984;0,31257
341,50602;22,76693;1238,25613;0,31258
341,90602;22,79354;1238,53497;0,31258
342,30602;22,82029;1239,59091;0,31255
342,70602;22,84695;1238,68221;0,31253
343,10602;22,87362;1239,79151;0,31253
343,50602;22,90029;1239,22750;0,31252
343,90602;22,92687;1238,77628;0,31253
344,30602;22,95362;1238,52249;0,31256
344,70602;22,98026;1239,43742;0,31254
345,10602;23,00695;1239,28078;0,31253
345,50602;23,03362;1239,48446;0,31253
345,90602;23,06026;1239,02382;0,31251
346,30602;23,08687;1238,95798;0,31252
346,70602;23,11362;1239,02066;0,31252
347,10602;23,14029;1240,19254;0,31249
347,50602;23,16698;1238,40021;0,31249
347,90602;23,19353;1238,76687;0,31250
348,30602;23,22023;1239,93251;0,31249
348,70602;23,24698;1238,93293;0,31251
349,10602;23,27359;1240,09233;0,31250
349,50602;23,30029;1240,14243;0,31247
349,90602;23,32687;1239,15542;0,31248
350,30602;23,35362;1239,46564;0,31250
350,70602;23,38026;1239,56585;0,31251
351,10602;23,40695;1239,54704;0,31249
351,50602;23,43362;1239,39980;0,31245
351,90602;23,46026;1239,76953;0,31242
352,30602;23,48684;1238,68855;0,31244
352,70602;23,51362;1240,23957;0,31245
353,10602;23,54034;1239,76953;0,31246
353,50602;23,56692;1239,52199;0,31247
353,90602;23,59353;1239,31523;0,31248
354,30602;23,62023;1239,64734;0,31249
354,70602;23,64698;1240,06411;0,31250
355,10602;23,67362;1239,36217;0,31247
355,50602;23,70029;1239,64110;0,31245
355,90602;23,72689;1239,70686;0,31244
356,30602;23,75359;1240,40563;0,31240
356,70602;23,78023;1241,05113;0,31235
357,10602;23,80695;1240,17689;0,31235
357,50602;23,83365;1239,65675;0,31239
357,90602;23,86023;1240,59366;0,31242
358,30602;23,88690;1239,42802;0,31246
358,70602;23,91359;1239,81340;0,31245
359,10602;23,94029;1240,65317;0,31241
359,50602;23,96698;1239,95440;0,31238
359,90602;23,99353;1240,76596;0,31240
360,30602;24,02026;1240,62495;0,31240
360,70602;24,04695;1240,54039;0,31240
361,10602;24,07362;1240,13303;0,31241
361,50602;24,10034;1241,23599;0,31238
361,90602;24,12689;1241,75297;0,31236
362,30602;24,15359;1240,77853;0,31236
362,70602;24,18026;1241,75297;0,31235
363,10602;24,20698;1240,94775;0,31235
363,50602;24,23362;1241,06053;0,31239
363,90602;24,26026;1240,82556;0,31238
364,30602;24,28687;1241,59632;0,31235
364,70602;24,31362;1241,29243;0,31236
365,10602;24,34026;1241,65276;0,31236
365,50602;24,36695;1242,17914;0,31234
365,90602;24,39362;1241,69970;0,31234
366,30602;24,42023;1242,27628;0,31237
366,70602;24,44695;1242,42352;0,31235
367,10602;24,47359;1241,82198;0,31234
367,50602;24,50031;1241,97239;0,31235
367,90602;24,52692;1241,94100;0,31235
368,30602;24,55359;1242,12587;0,31237
368,70602;24,58023;1242,36094;0,31240
369,10602;24,60695;1242,46739;0,31239
369,50602;24,63362;1242,68988;0,31234
369,90602;24,66023;1242,38906;0,31233
370,30602;24,68692;1242,72751;0,31234
370,70602;24,71359;1242,83722;0,31232
371,10602;24,74029;1243,10981;0,31234
371,50602;24,76695;1243,94018;0,31237
371,90602;24,79356;1243,10665;0,31234
372,30602;24,82026;1243,61739;0,31233
372,70602;24,84692;1243,46390;0,31234
373,10602;24,87362;1244,14377;0,31234
373,50602;24,90028;1243,28835;0,31234
373,90602;24,92689;1243,05654;0,31236
374,30602;24,95362;1243,24448;0,31236
374,70602;24,98026;1243,89315;0,31232
375,10602;25,00695;1244,14070;0,31230
375,50602;25,03362;1244,31932;0,31231
375,90602;25,06026;1244,60757;0,31229
376,30602;25,08689;1244,29110;0,31240
376,70602;25,11362;1244,01851;0,31243
377,10602;25,14026;1244,67965;0,31241
377,50602;25,16698;1244,40705;0,31238
377,90602;25,19353;1244,32556;0,31238
378,30602;25,22023;1244,85195;0,31239
378,70602;25,24698;1244,42270;0,31237
379,10602;25,27359;1244,86452;0,31238
379,50602;25,30028;1245,12147;0,31242
379,90602;25,32686;1244,72035;0,31243
380,30602;25,35362;1244,84887;0,31243
380,70602;25,38025;1245,53815;0,31244
381,10602;25,40698;1244,59816;0,31243
381,50602;25,43359;1246,02076;0,31242
381,90602;25,46025;1244,92720;0,31244
382,30602;25,48686;1244,51667;0,31244
382,70602;25,51362;1245,72935;0,31240
383,10602;25,54034;1246,02076;0,31238
383,50602;25,56692;1246,16800;0,31240
383,90602;25,59356;1245,61656;0,31238
384,30602;25,62023;1246,22444;0,31235
384,70602;25,64698;1246,55655;0,31237
385,10602;25,67362;1245,85154;0,31238
385,50602;25,70028;1246,18681;0,31234
385,90602;25,72692;1246,92004;0,31231
386,30602;25,75362;1247,60307;0,31232
386,70602;25,78026;1247,00777;0,31233
387,10602;25,80695;1247,07669;0,31234
387,50602;25,83365;1247,43702;0,31236
387,90602;25,86023;1247,29294;0,31240
388,30602;25,88687;1247,36810;0,31238
388,70602;25,91359;1247,66892;0,31235
389,10602;25,94028;1247,41821;0,31235
389,50602;25,96698;1247,42137;0,31234
389,90602;25,99353;1248,03241;0,31233
390,30602;26,02025;1248,59959;0,31237
390,70602;26,04695;1248,69673;0,31240
391,10602;26,07362;1247,86319;0,31238
391,50602;26,10031;1247,90389;0,31248
391,90602;26,12689;1248,80318;0,31253
392,30602;26,15359;1248,42720;0,31250
392,70602;26,18023;1246,77280;0,31292
393,10602;26,20698;1243,71136;0,31222
393,50602;26,23364;1243,15368;0,19115
393,90602;26,26025;1243,37301;0,12653
394,30602;26,28684;1243,50460;0,09710
394,70602;26,31362;1243,29468;0,08428
395,10602;26,34028;1243,29468;0,08429
395,50602;26,36695;1243,94018;0,08145
395,90602;26,39362;1243,83671;0,08013
396,30602;26,42023;1243,58293;0,07989
396,70602;26,44695;1243,91196;0,07171
397,10602;26,47359;1244,08426;0,06950
397,50602;26,50031;1244,15318;0,06697
397,90602;26,52692;1244,10624;0,06807
398,30602;26,55359;1243,99345;0,06745
398,70602;26,58023;1243,74898;0,06701
399,10602;26,60695;1244,14377;0,06687
399,50602;26,63361;1243,75839;0,06723
399,90602;26,66022;1244,50726;0,06649
400,30602;26,68692;1244,51360;0,06556
400,70602;26,71359;1244,88957;0,06597
401,10602;26,74028;1244,73292;0,06477
401,50602;26,76695;1244,65143;0,06144
401,90602;26,79356;1245,44734;0,02375
402,30602;26,82025;1244,59816;-0,00266
402,70602;26,84692;1245,41912;0,00389
403,10602;26,87362;1245,31882;0,00197
403,50602;26,90028;1244,70787;0,00148
403,90602;26,92689;1245,36902;0,00116
404,30602;26,95362;1246,12413;0,00086
404,70602;26,98025;1245,99570;0,00069
405,10602;27,00695;1246,28395;0,00079
405,50602;27,03362;1246,50011;-0,00012
405,90602;27,06025;1246,45317;0,00093
406,30602;27,08689;1245,37526;0,00084
406,70602;27,11362;1245,85470;0,00079
407,10602;27,14025;1246,27771;0,00079
407,50602;27,16695;1245,81391;0,00079
407,90602;27,19353;1245,89857;0,00079
408,30602;27,22025;1246,37485;0,00079
408,70602;27,24701;1246,75082;0,00079
409,10602;27,27361;1246,92945;0,00079
409,50602;27,30031;1247,12372;0,00079
409,90602;27,32689;1247,59376;0,00078
410,30602;27,35361;1247,63446;0,00078
410,70602;27,38025;1247,48088;0,00078
411,10602;27,40698;1247,33048;0,00078
411,50602;27,43362;1247,96350;0,00078
411,90602;27,46025;1247,45267;0,00078
412,30602;27,48683;1247,48405;0,00078
412,70602;27,51359;1248,93170;0,00078
413,10602;27,54034;1248,13262;0,00078
413,50602;27,56692;1248,75931;0,00078
413,90602;27,59356;1249,58968;0,00078
414,30602;27,62023;1248,66534;0,00078
414,70602;27,64698;1248,38017;0,00077
415,10602;27,67364;1249,50828;0,00077
415,50602;27,70028;1248,71861;0,00077
415,90602;27,72692;1249,58027;0,00077
416,30602;27,75362;1249,51759;0,00077
416,70602;27,78025;1249,32025;0,00077
417,10602;27,80697;1249,73068;0,00077
417,50602;27,83364;1249,59601;0,00077
417,90602;27,86023;1249,52076;0,00077
418,30602;27,88686;1250,14121;0,00077
418,70602;27,91362;1250,24775;0,00077
419,10602;27,94028;1250,30102;0,00077
419,50602;27,96698;1249,85920;0,00077
419,90602;27,99350;1250,31043;0,00077
420,30602;28,02025;1250,29469;0,00077
420,70602;28,04695;1251,39765;0,00077
421,10602;28,07361;1251,11882;0,00077
421,50602;28,10031;1250,96841;0,00077
421,90602;28,12692;1251,09693;0,00076
422,30602;28,15359;1251,63579;0,00076
422,70602;28,18022;1250,72086;0,00076
423,10602;28,20698;1251,77680;0,00076
423,50602;28,23361;1251,71728;0,00076
423,90602;28,26025;1251,53866;0,00076
424,30602;28,28683;1251,49172;0,00076
424,70602;28,31361;1251,73610;0,00076
425,10602;28,34028;1252,99888;0,00076
425,50602;28,36695;1252,47249;0,00076
425,90602;28,39361;1253,24959;0,00076
426,30602;28,42022;1252,74193;0,00076
426,70602;28,44695;1253,08977;0,00076
427,10602;28,47358;1253,62556;0,00076
427,50602;28,50031;1252,87045;0,00076
427,90602;28,52692;1254,13947;0,00076
428,30602;28,55358;1255,03251;0,00076
428,70602;28,58022;1252,96125;0,00076
429,10602;28,60698;1254,33998;0,00076
429,50602;28,63362;1255,16718;0,00076
429,90602;28,66022;1254,37444;0,00076
430,30602;28,68692;1255,14837;0,00075
430,70602;28,71358;1254,44336;0,00075
431,10602;28,74028;1255,34264;0,00075
431,50602;28,76695;1254,76616;0,00075
431,90602;28,79356;1255,47741;0,00076
432,30602;28,82025;1255,89101;0,00075
432,70602;28,84695;1255,54632;0,00075
433,10602;28,87361;1255,96626;0,00075
433,50602;28,90028;1254,80685;0,00075
433,90602;28,92689;1255,97566;0,00075
434,30602;28,95361;1257,31360;0,00075
434,70602;28,98022;1255,85031;0,00075
435,10602;29,00695;1256,67127;0,00075
435,50602;29,03361;1257,34806;0,00075
435,90602;29,06025;1256,46135;0,00075
436,30602;29,08689;1256,80286;0,00075
436,70602;29,11361;1257,08804;0,00075
437,10602;29,14025;1257,68334;0,00075
437,50602;29,16695;1257,22270;0,00075
437,90602;29,19353;1258,31002;0,00075
438,30602;29,22022;1258,64213;0,00075
438,70602;29,24700;1257,58620;0,00075
439,10602;29,27358;1258,28814;0,00075
439,50602;29,30031;1258,22853;0,00075
439,90602;29,32686;1258,86779;0,00075
440,30602;29,35361;1258,91790;0,00075
440,70602;29,38028;1259,47250;0,00075
441,10602;29,40697;1258,81769;0,00074
441,50602;29,43361;1259,64489;0,00075
441,90602;29,46025;1258,82700;0,00075
442,30602;29,48683;1260,58804;0,00074
442,70602;29,51361;1259,98016;0,00075
443,10602;29,54034;1259,22495;0,00075
443,50602;29,56692;1260,62566;0,00075
443,90602;29,59356;1260,69142;0,00074
444,30602;29,62022;1260,32168;0,00074
444,70602;29,64698;1260,14939;0,00074
445,10602;29,67364;1260,45328;0,00074
445,50602;29,70028;1260,96718;0,00074
445,90602;29,72689;1260,77915;0,00074
446,30602;29,75361;1261,74428;0,00074
446,70602;29,78025;1260,55358;0,00074
447,10602;29,80698;1260,62566;0,00074
447,50602;29,83364;1261,53743;0,00074
447,90602;29,86022;1260,99847;0,00074
448,30602;29,88689;1261,77873;0,00074
448,70602;29,91361;1261,04234;0,00074
449,10602;29,94028;1261,83517;0,00074
449,50602;29,96697;1261,86023;0,00074
449,90602;29,99350;1261,96677;0,00074
450,30602;30,02028;1263,06657;0,00074
450,70602;30,04695;1262,79397;0,00074
451,10602;30,07361;1262,82526;0,00074
451,50602;30,10034;1262,69367;0,00074
451,90602;30,12692;1263,38303;0,00074
452,30602;30,15358;1262,95686;0,00074
452,70602;30,18022;1263,04151;0,00074
453,10602;30,20697;1262,62158;0,00074
453,50602;30,23364;1263,10103;0,00074
453,90602;30,26025;1264,52986;0,00074
454,30602;30,28683;1263,60236;0,00074
454,70602;30,31361;1263,48333;0,00074
455,10602;30,34028;1262,78456;0,00074
455,50602;30,36695;1264,13824;0,00074
455,90602;30,39361;1264,31677;0,00074
456,30602;30,42022;1263,95021;0,00074
456,70602;30,44694;1265,03753;0,00074
457,10602;30,47358;1264,30737;0,00074
457,50602;30,50034;1264,03170;0,00074
457,90602;30,52692;1264,86514;0,00074
458,30602;30,55358;1264,88395;0,00074
458,70602;30,58022;1264,48916;0,00073
459,10602;30,60697;1264,57373;0,00074
459,50602;30,63361;1265,55450;0,00074
459,90602;30,66022;1265,47618;0,00074
460,30602;30,68692;1265,00931;0,00074
460,70602;30,71358;1265,68610;0,00074
461,10602;30,74031;1265,50440;0,00073
461,50602;30,76692;1265,74878;0,00073
461,90602;30,79353;1265,71748;0,00074
462,30602;30,82025;1266,44438;0,00073
462,70602;30,84692;1266,42874;0,00073
463,10602;30,87364;1266,31595;0,00073
463,50602;30,90028;1267,30921;0,00073
463,90602;30,92686;1267,03978;0,00073
464,30602;30,95361;1267,06166;0,00073
464,70602;30,98028;1267,27475;0,00073
465,10602;31,00695;1267,06166;0,00073
465,50602;31,03361;1267,84509;0,00073
465,90602;31,06028;1267,66646;0,00073
466,30602;31,08689;1267,06166;0,00073
466,70602;31,11361;1268,06442;0,00074
467,10602;31,14028;1268,14581;0,00073
467,50602;31,16697;1267,61943;0,00073
467,90602;31,19353;1267,55992;0,00073
468,30602;31,22025;1268,03620;0,00073
468,70602;31,24694;1268,63783;0,00073
469,10602;31,27361;1268,18968;0,00073
469,50602;31,30031;1267,70400;0,00073
469,90602;31,32689;1269,00440;0,00073
470,30602;31,35361;1269,17679;0,00073
470,70602;31,38025;1268,54377;0,00073
471,10602;31,40697;1268,30563;0,00073
471,50602;31,43361;1268,89786;0,00073
471,90602;31,46025;1269,07649;0,00073
472,30602;31,48686;1268,95430;0,00073
472,70602;31,51361;1269,41493;0,00073
473,10602;31,54036;1269,15798;0,00073
473,50602;31,56694;1270,00082;0,00073
473,90602;31,59355;1269,83793;0,00073
474,30602;31,62019;1269,21749;0,00073
474,70602;31,64697;1270,25153;0,00073
475,10602;31,67364;1270,01647;0,00073
475,50602;31,70030;1270,01023;0,00073
475,90602;31,72691;1270,91585;0,00073
476,30602;31,75358;1270,36432;0,00073
476,70602;31,78025;1271,18845;0,00073
477,10602;31,80697;1269,76892;0,00073
477,50602;31,83364;1270,35491;0,00073
477,90602;31,86019;1270,48027;0,00073
478,30602;31,88686;1270,53661;0,00073
478,70602;31,91361;1271,39520;0,00073
479,10602;31,94030;1270,64008;0,00073
479,50602;31,96697;1270,35175;0,00073
479,90602;31,99349;1271,17271;0,00073
480,30602;32,02028;1271,10695;0,00073
480,70602;32,04694;1271,76186;0,00073
481,10602;32,07361;1271,45788;0,00073
481,50602;32,10033;1270,92209;0,00073
481,90602;32,12692;1271,92475;0,00073
482,30602;32,15358;1272,50757;0,00073
482,70602;32,18025;1272,20675;0,00073
483,10602;32,20697;1271,73048;0,00073
483,50602;32,23361;1271,74305;0,00073
483,90602;32,26025;1272,51381;0,00073
484,30602;32,28686;1272,71749;0,00073
484,70602;32,31361;1272,16605;0,00073
485,10602;32,34027;1273,49775;0,00073
485,50602;32,36694;1272,74571;0,00073
485,90602;32,39361;1272,65174;0,00073
486,30602;32,42022;1272,36340;0,00073
486,70602;32,44694;1273,22515;0,00073
487,10602;32,47358;1273,28783;0,00073
487,50602;32,50033;1273,32229;0,00073
487,90602;32,52694;1272,67363;0,00073
488,30602;32,55358;1273,13109;0,00073
488,70602;32,58022;1273,37240;0,00073
489,10602;32,60697;1273,27843;0,00073
489,50602;32,63364;1273,03712;0,00073
489,90602;32,66024;1272,80522;0,00073
490,30602;32,68691;1273,51023;0,00073
490,70602;32,71358;1273,91452;0,00073
491,10602;32,74030;1273,53845;0,00073
491,50602;32,76694;1274,06493;0,00073
491,90602;32,79355;1274,58507;0,00073
492,30602;32,82025;1273,93957;0,00073
492,70602;32,84694;1274,58815;0,00073
493,10602;32,87364;1274,30307;0,00073
493,50602;32,90030;1273,88006;0,00073
493,90602;32,92688;1274,51299;0,00073
494,30602;32,95361;1274,80123;0,00073
494,70602;32,98024;1275,05818;0,00073
495,10602;33,00694;1274,91718;0,00073
495,50602;33,03361;1274,97669;0,00073
495,90602;33,06025;1275,84152;0,00073
496,30602;33,08688;1275,36217;0,00073
496,70602;33,11364;1275,24305;0,00072
497,10602;33,14028;1276,08282;0,00073
497,50602;33,16697;1274,40020;0,00073
497,90602;33,19352;1275,29949;0,00073
498,30602;33,22025;1275,81647;0,00072
498,70602;33,24700;1275,70685;0,00072
499,10602;33,27361;1275,98569;0,00073
499,50602;33,30027;1275,72557;0,00072
499,90602;33,32686;1276,53088;0,00073
500,30602;33,35361;1276,04520;0,00073
500,70602;33,38027;1276,74397;0,00072
501,10602;33,40697;1276,89755;0,00072
501,50602;33,43361;1276,61861;0,00073
501,90602;33,46024;1276,97587;0,00073
502,30602;33,48685;1277,11371;0,00072
502,70602;33,51358;1276,65000;0,00073
503,10602;33,54033;1276,91319;0,00073
503,50602;33,56691;1277,52423;0,00072
503,90602;33,59355;1277,60256;0,00072
504,30602;33,62025;1276,75962;0,00073
504,70602;33,64697;1277,15133;0,00073
505,10602;33,67364;1277,47096;0,00072
505,50602;33,70027;1277,10430;0,00072
505,90602;33,72691;1277,46779;0,00072
506,30602;33,75361;1277,64950;0,00072
506,70602;33,78025;1277,50542;0,00072
507,10602;33,80694;1277,68088;0,00073
507,50602;33,83363;1276,71575;0,00072
507,90602;33,86022;1277,87516;0,00073
508,30602;33,88688;1277,38630;0,00072
508,70602;33,91361;1277,53047;0,00072
509,10602;33,94030;1277,97853;0,00073
509,50602;33,96697;1276,78160;0,00072
509,90602;33,99352;1277,10430;0,00072
510,30602;34,02025;1277,43650;0,00073
510,70602;34,04694;1277,75297;0,00073
511,10602;34,07361;1278,13211;0,00073
511,50602;34,10033;1277,13876;0,00072
511,90602;34,12688;1277,28293;0,00072
512,30602;34,15358;1277,75297;0,00072
512,70602;34,18025;1277,45839;0,00072
513,10602;34,20697;1276,65307;0,00072
513,50602;34,23363;1277,29233;0,00072
513,90602;34,26024;1277,16074;0,00072
514,30602;34,28683;1276,91319;0,00072
514,70602;34,31361;1276,69387;0,00073
515,10602;34,34027;1277,58998;0,00073
515,50602;34,36694;1276,17680;0,00072
515,90602;34,39361;1276,94765;0,00072
516,30602;34,42022;1276,99468;0,00072
516,70602;34,44694;1277,32996;0,00072
517,10602;34,47361;1276,78467;0,00072
517,50602;34,50033;1276,32720;0,00072
517,90602;34,52691;1276,00757;0,00072
518,30602;34,55358;1275,74755;0,00072
518,70602;34,58025;1274,73548;0,00072
519,10602;34,60697;1275,45614;0,00072
519,50602;34,63361;1274,65716;0,00072
519,90602;34,66024;1274,92342;0,00073
520,30602;34,68691;1274,58815;0,00072
520,70602;34,71361;1273,68579;0,00072
521,10602;34,74030;1273,55419;0,00072
521,50602;34,76694;1273,99592;0,00072
521,90602;34,79355;1272,27567;0,00072
522,30602;34,82024;1272,35716;0,00072
522,70602;34,84691;1271,58007;0,00072
523,10602;34,87360;1271,52996;0,00072
523,50602;34,90028;1270,64632;0,00072
523,90602;34,92691;1270,11994;0,00072
524,30602;34,95361;1270,06974;0,00072
524,70602;34,98024;1268,72240;0,00072
525,10602;35,00694;1267,81054;0,00073
525,50602;35,03361;1266,55716;0,00072
525,90602;35,06025;1265,60777;0,00072
526,30602;35,08691;1263,58988;0,00072
526,70603;35,11363;1263,34541;0,00072
527,10603;35,14024;1261,06748;0,00072
527,50603;35,16694;1258,91790;0,00072
527,90603;35,19352;1257,44520;0,00072
528,30603;35,22024;1254,91023;0,00072
528,70603;35,24697;1252,37536;0,00072
529,10603;35,27361;1249,40481;0,00072
529,50603;35,30030;1244,62014;0,00072
529,86803;35,32438;962,80919;0,00072
529,87603;35,32492;678,65453;0,00072