File: 02_Appendices/Appendix_C_Experimental_Data/C_1_Materials_Tests/C_1_1_Tensile_tests/C_1_1_2_Quanton Iron/Specimen_RawData_2.csv
Text Inputs : Specimen label;"1"
Dimension : Length;50,00000;mm
Dimension : Final length;100,00000;mm
Test : Rate 1;4,00000;mm/min
General : Unique Identifier;"{3A6F2CAD-5807-4622-92CE-D5D0B7A6813D}"

Time;Extension;Load;Strain 1
(sec);(mm);(N);(mm/mm)
0,00000;0,00000;6,55547;-0,00003
0,40000;0,02442;17,24985;0,00007
0,80000;0,05291;36,73662;0,00029
1,20000;0,07994;53,77620;0,00049
1,60000;0,10670;70,20162;0,00068
2,00000;0,13330;72,20701;0,00075
2,40000;0,16000;73,07810;0,00078
2,80000;0,18664;73,29118;0,00080
3,20000;0,21336;72,50155;0,00081
3,60000;0,24000;73,26924;0,00082
4,00000;0,26667;72,39814;0,00083
4,40000;0,29330;72,36995;0,00083
4,80000;0,32003;72,33548;0,00084
5,20000;0,34667;72,01900;0,00085
5,60000;0,37328;72,47962;0,00086
6,00000;0,40006;72,96843;0,00087
6,40000;0,42667;75,93265;0,00090
6,80000;0,45336;80,39465;0,00094
7,20000;0,47994;88,97083;0,00104
7,60000;0,50667;101,30713;0,00117
8,00000;0,53336;114,73700;0,00133
8,40000;0,56000;127,54330;0,00148
8,80000;0,58667;140,85410;0,00164
9,20000;0,61333;154,47197;0,00181
9,60000;0,63997;170,19863;0,00201
10,00000;0,66669;185,08240;0,00220
10,40000;0,69336;199,44916;0,00239
10,80000;0,71997;214,40813;0,00259
11,20000;0,74667;228,17641;0,00279
11,60000;0,77330;242,60895;0,00298
12,00000;0,80000;255,61580;0,00317
12,40000;0,82669;269,09267;0,00336
12,80000;0,85333;282,24678;0,00355
13,20000;0,88000;295,53564;0,00374
13,60000;0,90664;308,20409;0,00393
14,00000;0,93336;320,03277;0,00412
14,40000;0,96006;333,84177;0,00430
14,80000;0,98664;345,40724;0,00449
15,20000;1,01333;357,88768;0,00467
15,60000;1,03997;371,21414;0,00486
16,00000;1,06669;383,96092;0,00505
16,40000;1,09333;394,46414;0,00524
16,80000;1,12003;406,93833;0,00542
17,20000;1,14667;418,98005;0,00561
17,60000;1,17330;431,10955;0,00580
18,00000;1,19997;442,72202;0,00598
18,40000;1,22667;453,48220;0,00617
18,80000;1,25342;464,79390;0,00635
19,20000;1,27997;476,75418;0,00653
19,60000;1,30667;486,94406;0,00671
20,00000;1,33330;499,87887;0,00690
20,40000;1,36003;509,99043;0,00708
20,80000;1,38669;520,48112;0,00726
21,20000;1,41333;530,94677;0,00744
21,60000;1,44000;542,03281;0,00762
22,00000;1,46667;552,84314;0,00780
22,40000;1,49330;563,39027;0,00798
22,80000;1,52003;573,69922;0,00816
23,20000;1,54672;583,08071;0,00833
23,60000;1,57327;593,04186;0,00850
24,00000;1,59997;603,00301;0,00868
24,40000;1,62666;611,75469;0,00885
24,80000;1,65339;621,36175;0,00902
25,20000;1,68000;631,06599;0,00919
25,60000;1,70661;640,50700;0,00936
26,00000;1,73336;650,65618;0,00953
26,40000;1,76003;658,99105;0,00970
26,80000;1,78666;666,80270;0,00987
27,20000;1,81336;676,93307;0,01004
27,60000;1,84000;686,96630;0,01021
28,00000;1,86666;695,84018;0,01038
28,40000;1,89333;703,63614;0,01055
28,80000;1,92003;713,16487;0,01072
29,20000;1,94666;721,20521;0,01088
29,60000;1,97333;729,98195;0,01105
30,00000;2,00000;738,77433;0,01122
30,40000;2,02669;746,94632;0,01139
30,80000;2,05336;755,16216;0,01156
31,20000;2,07997;764,60633;0,01173
31,60000;2,10672;773,06656;0,01190
32,00000;2,13333;781,24795;0,01206
32,40000;2,16003;789,56718;0,01223
32,80000;2,18664;797,44775;0,01240
33,20000;2,21336;805,75133;0,01257
33,60000;2,24000;814,73486;0,01273
34,00000;2,26666;821,37147;0,01290
34,40000;2,29330;830,38006;0,01307
34,80000;2,32003;839,03139;0,01324
35,20000;2,34666;845,88425;0,01341
35,60000;2,37327;854,13456;0,01357
36,00000;2,40005;862,07464;0,01374
36,40000;2,42666;869,76402;0,01391
36,80000;2,45336;877,52556;0,01408
37,20000;2,47997;884,55379;0,01424
37,60000;2,50666;893,15511;0,01441
38,00000;2,53336;899,62874;0,01458
38,40000;2,56000;907,92608;0,01475
38,80000;2,58666;914,71309;0,01492
39,20000;2,61336;922,85052;0,01509
39,60000;2,64000;930,85021;0,01526
40,00000;2,66666;937,08886;0,01543
40,40000;2,69333;944,64039;0,01560
40,80000;2,72000;951,38662;0,01577
41,20000;2,74669;959,70901;0,01594
41,60000;2,77333;966,59940;0,01611
42,00000;2,80003;973,37393;0,01628
42,40000;2,82669;981,16985;0,01646
42,80000;2,85336;987,72496;0,01663
43,20000;2,88000;994,94755;0,01680
43,60000;2,90663;1002,52107;0,01698
44,00000;2,93333;1009,63078;0,01715
44,40000;2,96005;1016,58702;0,01733
44,80000;2,98666;1022,88825;0,01750
45,20000;3,01333;1029,86647;0,01768
45,60000;3,03997;1037,59030;0,01785
46,00000;3,06666;1043,47179;0,01803
46,40000;3,09333;1051,41811;0,01821
46,80000;3,12002;1056,88283;0,01839
47,20000;3,14669;1063,88293;0,01857
47,60000;3,17327;1070,64480;0,01875
48,00000;3,20000;1076,37588;0,01892
48,40000;3,22666;1083,71750;0,01910
48,80000;3,25342;1089,33570;0,01928
49,20000;3,27994;1095,81249;0,01945
49,60000;3,30666;1101,65952;0,01962
50,00000;3,33333;1107,64122;0,01980
50,40000;3,36005;1113,19367;0,01998
50,80000;3,38666;1119,82394;0,02015
51,20000;3,41330;1125,46412;0,02033
51,60000;3,44000;1130,97578;0,02051
52,00000;3,46666;1136,37783;0,02069
52,40000;3,49333;1142,67292;0,02087
52,80000;3,52000;1147,49521;0,02105
53,20000;3,54672;1153,50205;0,02123
53,60000;3,57327;1159,25502;0,02141
54,00000;3,60000;1165,18345;0,02159
54,40000;3,62666;1170,12169;0,02177
54,80000;3,65336;1175,41403;0,02196
55,20000;3,68000;1181,35503;0,02214
55,60000;3,70661;1186,40615;0,02232
56,00000;3,73336;1192,51003;0,02250
56,40000;3,76000;1197,71780;0,02268
56,80000;3,78666;1202,29889;0,02287
57,20000;3,81336;1207,12435;0,02305
57,60000;3,84000;1212,25063;0,02324
58,00000;3,86663;1217,25155;0,02342
58,40000;3,89330;1222,23683;0,02361
58,80000;3,92002;1227,40390;0,02379
59,20000;3,94669;1232,17916;0,02398
59,60000;3,97333;1237,28355;0,02417
60,00000;4,00000;1241,50114;0,02436
60,40000;4,02669;1246,68693;0,02454
60,80000;4,05336;1251,78192;0,02473
61,20000;4,07997;1256,68570;0,02492
61,60000;4,10669;1260,30799;0,02511
62,00000;4,13330;1265,26188;0,02531
62,40000;4,16002;1269,76464;0,02550
62,80000;4,18663;1273,43386;0,02569
63,20000;4,21336;1278,47558;0,02588
63,60000;4,24000;1283,12865;0,02608
64,00000;4,26666;1287,28990;0,02627
64,40000;4,29333;1290,86822;0,02646
64,80000;4,32002;1295,35841;0,02666
65,20000;4,34666;1299,40994;0,02685
65,60000;4,37327;1303,78427;0,02705
66,00000;4,40005;1306,99910;0,02725
66,40000;4,42666;1311,32640;0,02744
66,80000;4,45336;1315,18673;0,02764
67,20000;4,47997;1319,09102;0,02784
67,60000;4,50666;1322,39051;0,02803
68,00000;4,53336;1326,46710;0,02823
68,40000;4,55999;1329,23080;0,02843
68,80000;4,58666;1332,72139;0,02863
69,20000;4,61336;1335,76086;0,02883
69,60000;4,63997;1339,38622;0,02903
70,00000;4,66666;1342,96771;0,02924
70,40000;4,69336;1345,81914;0,02944
70,80000;4,71999;1349,39123;0,02964
71,20000;4,74666;1352,18315;0,02984
71,60000;4,77330;1355,21004;0,03005
72,00000;4,79999;1357,96741;0,03025
72,40000;4,82669;1361,08836;0,03046
72,80000;4,85333;1364,28438;0,03066
73,20000;4,87999;1366,70340;0,03087
73,60000;4,90666;1370,16904;0,03107
74,00000;4,93333;1372,06158;0,03128
74,40000;4,96005;1374,68427;0,03149
74,80000;4,98666;1377,77068;0,03169
75,20000;5,01333;1380,03612;0,03190
75,60000;5,03999;1382,15125;0,03210
76,00000;5,06669;1384,55452;0,03231
76,40000;5,09333;1386,86392;0,03252
76,80000;5,12002;1389,01025;0,03273
77,20000;5,14666;1390,90596;0,03294
77,60000;5,17330;1393,55063;0,03315
78,00000;5,19997;1395,26147;0,03336
78,40000;5,22669;1397,37967;0,03357
78,80000;5,25341;1398,10657;0,03378
79,20000;5,27994;1401,03009;0,03399
79,60000;5,30666;1402,73785;0,03420
80,00000;5,33333;1404,18857;0,03441
80,40000;5,36005;1405,31659;0,03463
80,80000;5,38669;1407,63540;0,03484
81,20000;5,41333;1409,24910;0,03505
81,60000;5,43999;1411,11035;0,03527
82,00000;5,46666;1412,46393;0,03548
82,40000;5,49330;1413,54185;0,03569
82,80000;5,52002;1415,08663;0,03590
83,20000;5,54672;1414,82027;0,03612
83,60000;5,57330;1417,38970;0,03633
84,00000;5,59999;1418,59604;0,03654
84,40000;5,62666;1419,74604;0,03677
84,80000;5,65338;1421,18428;0,03698
85,20000;5,67999;1421,37231;0,03719
85,60000;5,70660;1423,25545;0,03741
86,00000;5,73336;1423,86649;0,03763
86,40000;5,75999;1424,52139;0,03784
86,80000;5,78666;1425,68704;0,03806
87,20000;5,81336;1425,95647;0,03827
87,60000;5,83999;1427,78018;0,03849
88,00000;5,86663;1427,70810;0,03871
88,40000;5,89333;1428,43816;0,03892
88,80000;5,92002;1429,06168;0,03914
89,20000;5,94669;1429,43775;0,03936
89,60000;5,97330;1429,97354;0,03958
90,00000;5,99999;1430,40279;0,03979
90,40000;6,02669;1430,92293;0,04001
90,80000;6,05335;1432,05104;0,04023
91,20000;6,07996;1431,43376;0,04045
91,60000;6,10672;1431,67498;0,04066
92,00000;6,13333;1432,65575;0,04088
92,40000;6,16002;1432,16699;0,04110
92,80000;6,18666;1432,61505;0,04131
93,20000;6,21335;1431,93193;0,04153
93,60000;6,23999;1432,43326;0,04175
94,00000;6,26666;1432,76230;0,04197
94,40000;6,29333;1432,55861;0,04218
94,80000;6,32002;1432,27344;0,04240
95,20000;6,34666;1431,95698;0,04261
95,60000;6,37330;1432,22017;0,04283
96,00000;6,40005;1431,51209;0,04305
96,40000;6,42666;1432,01966;0,04326
96,80000;6,45335;1430,99818;0,04348
97,20000;6,47996;1431,24890;0,04369
97,60000;6,50666;1430,81956;0,04391
98,00000;6,53335;1429,87017;0,04413
98,40000;6,55999;1429,09624;0,04434
98,80000;6,58669;1429,27794;0,04456
99,20000;6,61335;1428,27835;0,04477
99,60000;6,63999;1429,10248;0,04499
100,00000;6,66666;1428,04962;0,04520
100,40000;6,69335;1426,85892;0,04542
100,80000;6,71999;1426,69911;0,04563
101,20000;6,74666;1426,18520;0,04585
101,60000;6,77333;1426,61454;0,04606
102,00000;6,79999;1425,43325;0,04628
102,40000;6,82669;1424,00125;0,04649
102,80000;6,85335;1423,54378;0,04670
103,20000;6,87999;1423,41526;0,04692
103,60000;6,90666;1422,62876;0,04713
104,00000;6,93333;1421,68254;0,04734
104,40000;6,96005;1421,06833;0,04756
104,80000;6,98663;1420,16597;0,04777
105,20000;7,01333;1419,81188;0,04798
105,60001;7,03996;1418,59921;0,04820
106,00001;7,06669;1418,58980;0,04841
106,40001;7,09333;1416,79123;0,04862
106,80001;7,12002;1415,78540;0,04883
107,20001;7,14669;1414,70432;0,04904
107,60001;7,17330;1414,31587;0,04925
108,00001;7,19996;1413,46976;0,04947
108,40001;7,22666;1412,84307;0,04968
108,80001;7,25341;1411,58663;0,04989
109,20001;7,27993;1411,02886;0,05009
109,60001;7,30666;1410,44287;0,05031
109,96401;7,33090;1409,00463;0,05050
110,29001;7,35256;1408,67876;0,05067
110,69001;7,37917;1406,98673;0,05088
111,09001;7,40592;1406,99297;0,05109
111,49001;7,43256;1405,98090;0,05129
111,89001;7,45919;1405,10360;0,05150
112,29001;7,48578;1403,33315;0,05171
112,69001;7,51253;1402,60933;0,05192
113,09001;7,53928;1401,62231;0,05213
113,49001;7,56586;1400,50370;0,05233
113,89001;7,59250;1399,34430;0,05254
114,29001;7,61917;1398,39798;0,05274
114,69001;7,64589;1397,83714;0,05295
115,09001;7,67258;1396,28295;0,05316
115,49001;7,69925;1395,02957;0,05336
115,89001;7,72583;1394,74133;0,05357
116,29001;7,75250;1392,88632;0,05377
116,69001;7,77916;1391,31024;0,05398
117,09001;7,80589;1391,81782;0,05418
117,49001;7,83261;1389,67140;0,05439
117,89001;7,85917;1389,08857;0,05459
118,29001;7,88580;1387,12395;0,05479
118,69001;7,91253;1386,90462;0,05500
119,09001;7,93925;1385,68887;0,05520
119,49001;7,96592;1383,86516;0,05541
119,89001;7,99247;1383,00033;0,05561
120,29001;8,01916;1382,01024;0,05581
120,69001;8,04589;1381,90994;0,05601
121,09001;8,07255;1380,98868;0,05622
121,49001;8,09925;1378,63550;0,05642
121,89001;8,12583;1378,12160;0,05662
122,29001;8,15250;1376,52671;0,05682
122,69001;8,17916;1375,82170;0,05702
123,09001;8,20592;1374,78141;0,05722
123,49001;8,23255;1373,81321;0,05743
123,89001;8,25919;1372,68510;0,05762
124,29001;8,28580;1370,98366;0,05782
124,69001;8,31255;1369,85248;0,05803
125,09001;8,33922;1369,59869;0,05823
125,49001;8,36589;1368,19808;0,05842
125,89001;8,39255;1367,69982;0,05862
126,29001;8,41916;1365,74460;0,05882
126,69001;8,44589;1365,39992;0,05902
127,09001;8,47250;1364,46301;0,05922
127,49001;8,49922;1362,57671;0,05942
127,89001;8,52583;1361,87477;0,05962
128,29001;8,55253;1360,49613;0,05981
128,69001;8,57916;1358,90115;0,06001
129,09001;8,60589;1358,64429;0,06021
129,49001;8,63255;1357,09010;0,06040
129,89001;8,65916;1356,35370;0,06060
130,29001;8,68583;1355,15044;0,06080
130,69001;8,71253;1354,46424;0,06099
131,09001;8,73922;1352,21444;0,06119
131,49001;8,76589;1351,70994;0,06139
131,89001;8,79252;1350,57252;0,06158
132,29001;8,81919;1349,62937;0,06177
132,69001;8,84586;1348,64552;0,06197
133,09001;8,87255;1347,46423;0,06216
133,49001;8,89922;1346,60564;0,06236
133,89001;8,92586;1345,17048;0,06255
134,29001;8,95255;1343,95473;0,06275
134,69001;8,97919;1343,15575;0,06294
135,09001;9,00589;1341,86475;0,06313
135,49001;9,03255;1341,18479;0,06332
135,89001;9,05919;1340,04736;0,06352
136,29001;9,08580;1338,49317;0,06371
136,69001;9,11255;1337,73806;0,06390
137,09001;9,13922;1337,41526;0,06410
137,49001;9,16592;1335,56658;0,06429
137,89001;9,19247;1335,25012;0,06448
138,29001;9,21916;1333,42333;0,06467
138,69001;9,24594;1333,09430;0,06487
139,09001;9,27253;1331,81904;0,06506
139,49001;9,29925;1330,76301;0,06525
139,89001;9,32580;1329,48142;0,06544
140,29001;9,35255;1329,48458;0,06564
140,69001;9,37916;1328,35656;0,06583
141,09001;9,40591;1327,34757;0,06602
141,49001;9,43255;1326,72088;0,06621
141,89001;9,45916;1326,18193;0,06640
142,29001;9,48580;1324,09194;0,06659
142,69001;9,51255;1323,09869;0,06679
143,09001;9,53928;1321,88918;0,06698
143,49001;9,56586;1322,08029;0,06717
143,89001;9,59250;1320,26915;0,06736
144,29001;9,61916;1319,61117;0,06755
144,69001;9,64591;1319,40432;0,06774
145,09001;9,67258;1318,26689;0,06793
145,49001;9,69922;1317,21096;0,06812
145,89001;9,72583;1316,32732;0,06831
146,29001;9,75252;1315,20247;0,06850
146,69001;9,77916;1314,89532;0,06869
147,09001;9,80586;1313,81750;0,06888
147,49001;9,83261;1312,77712;0,06907
147,89001;9,85916;1312,56096;0,06925
148,29001;9,88580;1311,17599;0,06944
148,69001;9,91252;1310,12946;0,06963
149,09001;9,93925;1308,78519;0,06982
149,49001;9,96591;1308,11464;0,07001
149,89001;9,99247;1307,82640;0,07020
150,29001;10,01916;1306,43826;0,07039
150,69001;10,04586;1305,64235;0,07057
151,09001;10,07255;1304,30125;0,07076
151,49001;10,09928;1302,83795;0,07095
151,89001;10,12583;1302,96638;0,07113
152,29001;10,15250;1302,17681;0,07132
152,69001;10,17916;1301,04879;0,07151
153,09001;10,20591;1300,53172;0,07169
153,49001;10,23255;1299,38489;0,07188
153,89001;10,25919;1298,45738;0,07207
154,29001;10,28574;1297,63018;0,07226
154,69001;10,31255;1296,44265;0,07244
155,09001;10,33922;1296,56792;0,07263
155,49001;10,36589;1295,34593;0,07282
155,89001;10,39255;1294,51239;0,07300
156,29001;10,41913;1294,37456;0,07319
156,69001;10,44589;1293,66638;0,07338
157,09001;10,47252;1292,29706;0,07356
157,49001;10,49925;1291,57957;0,07375
157,89001;10,52586;1290,94031;0,07394
158,29001;10,55252;1290,36382;0,07412
158,69001;10,57916;1289,03519;0,07431
159,09001;10,60589;1288,90676;0,07449
159,49001;10,63255;1287,95104;0,07468
159,89001;10,65916;1287,09562;0,07487
160,29001;10,68586;1286,12425;0,07505
160,69001;10,71249;1285,74828;0,07523
161,09001;10,73922;1285,25002;0,07542
161,49001;10,76586;1284,03427;0,07561
161,89001;10,79249;1283,57988;0,07579
162,29001;10,81919;1283,31985;0,07598
162,69001;10,84586;1282,42997;0,07616
163,09001;10,87255;1281,63714;0,07635
163,49001;10,89922;1280,38693;0,07653
163,89001;10,92586;1279,67875;0,07672
164,29001;10,95255;1279,29961;0,07691
164,69001;10,97919;1277,90524;0,07709
165,09001;11,00586;1277,88335;0,07728
165,49001;11,03255;1277,59194;0,07746
165,89001;11,05922;1276,27589;0,07765
166,29001;11,08583;1276,25400;0,07783
166,69001;11,11258;1274,94419;0,07802
167,09001;11,13919;1274,30810;0,07820
167,49001;11,16591;1272,61290;0,07839
167,89001;11,19247;1272,94194;0,07857
168,29001;11,21916;1273,22078;0,07875
168,69001;11,24591;1270,76106;0,07894
169,09001;11,27252;1270,80176;0,07912
169,49001;11,29925;1269,69256;0,07930
169,89001;11,32583;1269,39798;0,07949
170,29001;11,35255;1269,36045;0,07967
170,69001;11,37916;1267,99736;0,07985
171,09001;11,40591;1266,43376;0,08004
171,49001;11,43255;1267,17640;0,08022
171,89001;11,45922;1266,79102;0,08041
172,29001;11,48577;1265,47497;0,08059
172,69001;11,51255;1265,09899;0,08077
173,09001;11,53927;1263,63570;0,08096
173,49001;11,56588;1263,74532;0,08114
173,89001;11,59249;1262,81474;0,08132
174,29001;11,61916;1262,90554;0,08151
174,69001;11,64588;1261,92477;0,08169
175,09001;11,67255;1262,12221;0,08188
175,49001;11,69925;1260,60564;0,08206
175,89001;11,72586;1260,15125;0,08224
176,29001;11,75249;1259,13294;0,08243
176,69001;11,77916;1259,08274;0,08261
177,09001;11,80588;1258,86975;0,08279
177,49001;11,83261;1257,73232;0,08298
177,89001;11,85916;1257,15882;0,08316
178,29001;11,88580;1256,79849;0,08334
178,69001;11,91252;1256,38805;0,08353
179,09001;11,93925;1255,25687;0,08371
179,49001;11,96594;1254,63959;0,08389
179,89001;11,99246;1254,26361;0,08408
180,29001;12,01919;1254,25104;0,08426
180,69001;12,04588;1254,21658;0,08445
181,09001;12,07258;1253,04777;0,08463
181,49001;12,09925;1252,29266;0,08481
181,89001;12,12583;1252,23938;0,08500
182,29001;12,15249;1251,48110;0,08518
182,69001;12,17916;1250,62568;0,08536
183,09001;12,20591;1250,57241;0,08555
183,49001;12,23255;1249,51331;0,08573
183,89001;12,25919;1249,69818;0,08591
184,29001;12,28577;1248,73938;0,08610
184,69001;12,31258;1247,93090;0,08629
185,09001;12,33919;1247,64889;0,08647
185,49001;12,36588;1246,98151;0,08665
185,89001;12,39255;1246,81229;0,08683
186,29001;12,41916;1246,64931;0,08701
186,69001;12,44588;1245,98509;0,08720
187,09001;12,47249;1245,58713;0,08738
187,49001;12,49924;1244,75677;0,08756
187,89001;12,52585;1244,89153;0,08775
188,29001;12,55252;1243,85124;0,08793
188,69001;12,57916;1243,02087;0,08811
189,09001;12,60591;1242,86106;0,08829
189,49001;12,63255;1242,19675;0,08848
189,89001;12,65916;1242,25002;0,08866
190,29001;12,68585;1241,48233;0,08884
190,69001;12,71252;1241,03734;0,08902
191,09001;12,73922;1240,49848;0,08921
191,49001;12,76585;1240,11934;0,08939
191,89001;12,79249;1239,34224;0,08957
192,29001;12,81919;1239,51137;0,08976
192,69001;12,84585;1239,78090;0,08994
193,09001;12,87255;1238,31760;0,09012
193,49001;12,89922;1238,10451;0,09031
193,89001;12,92585;1237,47159;0,09049
194,29001;12,95252;1236,21821;0,09067
194,69001;12,97919;1236,57854;0,09085
195,09001;13,00588;1236,44061;0,09104
195,49001;13,03258;1235,19357;0,09122
195,89001;13,05919;1234,92405;0,09140
196,29001;13,08580;1234,10625;0,09158
196,69001;13,11258;1234,20656;0,09177
197,09001;13,13919;1234,07179;0,09195
197,49001;13,16594;1232,83090;0,09213
197,89001;13,19249;1232,64920;0,09232
198,29001;13,21916;1231,69348;0,09250
198,69001;13,24594;1232,32333;0,09269
199,09001;13,27255;1232,08836;0,09287
199,49001;13,29924;1231,22036;0,09305
199,89001;13,32582;1230,97906;0,09324
200,29001;13,35255;1230,59992;0,09342
200,69001;13,37916;1230,76597;0,09360
201,09001;13,40591;1229,22752;0,09379
201,49001;13,43255;1229,36536;0,09397
201,89001;13,45919;1228,54756;0,09416
202,29001;13,48577;1228,14337;0,09434
202,69001;13,51255;1229,05830;0,09452
203,09001;13,53927;1227,68274;0,09471
203,49001;13,56588;1227,20962;0,09489
203,89001;13,59249;1226,34480;0,09508
204,29001;13,61916;1226,36044;0,09526
204,69001;13,64591;1225,74940;0,09544
205,09001;13,67258;1225,30134;0,09563
205,49001;13,69921;1224,95042;0,09581
205,89001;13,72585;1225,07261;0,09599
206,29001;13,75252;1224,98488;0,09618
206,69001;13,77916;1224,00410;0,09636
207,09001;13,80588;1223,59991;0,09654
207,49001;13,83260;1222,40921;0,09673
207,89001;13,85916;1222,88233;0,09691
208,29001;13,88582;1222,52200;0,09709
208,69001;13,91252;1221,79501;0,09727
209,09001;13,93924;1221,75114;0,09746
209,49001;13,96594;1221,71668;0,09764
209,89001;13,99246;1220,48529;0,09782
210,29001;14,01916;1221,00851;0,09801
210,69001;14,04588;1220,47272;0,09819
211,09001;14,07255;1220,68264;0,09838
211,49001;14,09924;1218,99378;0,09856
211,89001;14,12582;1218,79317;0,09874
212,29001;14,15249;1218,84020;0,09893
212,69001;14,17916;1218,49552;0,09911
213,09001;14,20591;1218,11638;0,09930
213,49001;14,23258;1217,46464;0,09948
213,89001;14,25919;1217,31739;0,09967
214,29001;14,28577;1217,26412;0,09985
214,69001;14,31255;1216,74081;0,10004
215,09001;14,33922;1217,40196;0,10022
215,49001;14,36588;1215,61587;0,10041
215,89001;14,39255;1215,08949;0,10059
216,29001;14,41916;1215,21484;0,10078
216,69001;14,44588;1215,91361;0,10096
217,09001;14,47252;1215,12711;0,10115
217,49001;14,49924;1215,27119;0,10133
217,89001;14,52585;1214,75104;0,10152
218,29001;14,55252;1214,66964;0,10170
218,69001;14,57916;1214,42517;0,10189
219,09001;14,60591;1214,33120;0,10207
219,49001;14,63255;1213,21259;0,10226
219,89001;14,65919;1212,88672;0,10245
220,29001;14,68585;1212,59531;0,10263
220,69001;14,71255;1212,80206;0,10282
221,09001;14,73921;1212,92425;0,10300
221,49001;14,76588;1212,01249;0,10319
221,89001;14,79249;1211,87456;0,10338
222,29001;14,81921;1212,42926;0,10357
222,69001;14,84585;1211,62701;0,10375
223,09001;14,87255;1211,58315;0,10394
223,49001;14,89924;1211,43907;0,10413
223,89001;14,92585;1210,84685;0,10431
224,29001;14,95255;1210,57425;0,10450
224,69001;14,97918;1210,86249;0,10468
225,09001;15,00588;1211,14450;0,10487
225,49001;15,03258;1208,91351;0,10506
225,89001;15,05921;1209,06709;0,10524
226,29001;15,08582;1209,00124;0,10543
226,69001;15,11255;1208,88529;0,10562
227,09001;15,13919;1208,53754;0,10581
227,49001;15,16591;1207,74470;0,10599
227,89001;15,19249;1207,04910;0,10618
228,29001;15,21916;1208,18652;0,10636
228,69001;15,24591;1207,23397;0,10655
229,09001;15,27255;1206,94889;0,10674
229,49001;15,29924;1207,37813;0,10693
229,89001;15,32582;1206,60421;0,10712
230,29001;15,35255;1207,00216;0,10730
230,69001;15,37916;1206,35666;0,10749
231,09001;15,40594;1206,62609;0,10768
231,49001;15,43255;1206,00564;0,10787
231,89001;15,45919;1205,46985;0,10806
232,29001;15,48580;1205,81454;0,10824
232,69001;15,51255;1205,71116;0,10844
233,09001;15,53927;1205,73938;0,10862
233,49001;15,56588;1205,45104;0,10881
233,89001;15,59246;1204,64582;0,10900
234,29001;15,61916;1204,74920;0,10919
234,69001;15,64591;1204,54868;0,10938
235,09001;15,67257;1204,94664;0,10957
235,49001;15,69921;1204,52670;0,10976
235,89001;15,72585;1204,29797;0,10995
236,29001;15,75252;1204,09746;0,11014
236,69001;15,77915;1203,43938;0,11032
237,09001;15,80588;1204,02854;0,11052
237,49001;15,83257;1202,96944;0,11071
237,89001;15,85915;1203,24828;0,11089
238,29001;15,88579;1202,69051;0,11108
238,69001;15,91255;1202,86597;0,11128
239,09001;15,93924;1202,50564;0,11147
239,49001;15,96593;1202,20482;0,11166
239,89001;15,99246;1201,78806;0,11185
240,29001;16,01918;1201,70033;0,11204
240,69001;16,04588;1201,72855;0,11223
241,09001;16,07252;1202,40534;0,11242
241,49001;16,09927;1201,19900;0,11261
241,89001;16,12582;1200,86065;0,11280
242,29001;16,15252;1201,21781;0,11300
242,69001;16,17916;1200,91392;0,11318
243,09001;16,20591;1200,45329;0,11338
243,49001;16,23257;1200,22139;0,11357
243,89001;16,25924;1199,49756;0,11376
244,29001;16,28579;1199,94562;0,11395
244,69001;16,31252;1199,53202;0,11414
245,09001;16,33918;1200,39368;0,11433
245,49001;16,36588;1199,77016;0,11453
245,89001;16,39257;1199,46934;0,11472
246,29001;16,41915;1199,50380;0,11491
246,69001;16,44585;1198,77998;0,11510
247,09001;16,47252;1199,36913;0,11529
247,49001;16,49927;1198,02803;0,11548
247,89001;16,52585;1198,71730;0,11568
248,29001;16,55249;1198,56382;0,11587
248,69001;16,57915;1198,32568;0,11606
249,09001;16,60593;1197,08795;0,11626
249,49001;16,63257;1198,39143;0,11645
249,89001;16,65918;1197,46709;0,11664
250,29001;16,68582;1197,44828;0,11683
250,69001;16,71252;1197,37620;0,11703
251,09001;16,73924;1197,41699;0,11722
251,49001;16,76588;1197,75226;0,11741
251,89001;16,79249;1197,07547;0,11761
252,29001;16,81918;1196,83100;0,11780
252,69001;16,84588;1197,15063;0,11799
253,09001;16,87257;1196,97200;0,11819
253,49001;16,89924;1195,69041;0,11838
253,89001;16,92579;1196,42997;0,11858
254,29001;16,95252;1196,48632;0,11877
254,69001;16,97921;1196,43621;0,11897
255,09001;17,00591;1195,87844;0,11917
255,49001;17,03254;1196,17302;0,11936
255,89001;17,05918;1196,35165;0,11956
256,29001;17,08582;1195,50554;0,11975
256,69001;17,11257;1195,35206;0,11995
257,09001;17,13918;1195,51187;0,12014
257,49001;17,16588;1194,85697;0,12034
257,89001;17,19246;1194,71280;0,12053
258,29001;17,21918;1194,81310;0,12073
258,69001;17,24593;1194,49031;0,12093
259,09001;17,27252;1195,42722;0,12112
259,49001;17,29915;1194,91341;0,12132
259,89001;17,32588;1194,24909;0,12152
260,29001;17,35257;1194,43713;0,12172
260,69001;17,37918;1195,45227;0,12191
261,09001;17,40590;1194,39317;0,12211
261,49001;17,43251;1194,07987;0,12231
261,89001;17,45921;1194,43079;0,12250
262,29001;17,48579;1193,90124;0,12270
262,69001;17,51254;1194,47783;0,12290
263,09001;17,53924;1193,89184;0,12310
263,49001;17,56585;1194,56556;0,12329
263,89001;17,59254;1193,99214;0,12349
264,29001;17,61915;1193,19307;0,12369
264,69001;17,64588;1193,53468;0,12389
265,09001;17,67252;1193,43437;0,12408
265,49001;17,69924;1193,00196;0,12428
265,89001;17,72585;1193,19307;0,12448
266,29001;17,75254;1193,60676;0,12468
266,69001;17,77915;1192,30635;0,12488
267,09001;17,80588;1193,15237;0,12508
267,49001;17,83266;1192,57895;0,12528
267,89001;17,85918;1193,30594;0,12548
268,29001;17,88579;1192,26566;0,12567
268,69001;17,91249;1192,25625;0,12587
269,09001;17,93921;1193,45002;0,12607
269,49001;17,96596;1193,00513;0,12627
269,89001;17,99246;1192,99255;0,12647
270,29001;18,01915;1191,70472;0,12667
270,69001;18,04582;1192,08386;0,12687
271,09001;18,07254;1192,87977;0,12707
271,49001;18,09927;1192,29695;0,12727
271,89001;18,12585;1191,93038;0,12748
272,29001;18,15249;1191,86454;0,12768
272,69001;18,17912;1191,91157;0,12788
273,09001;18,20593;1191,89275;0,12808
273,49001;18,23260;1191,67026;0,12828
273,89001;18,25921;1191,55124;0,12848
274,29001;18,28574;1191,19082;0,12868
274,69001;18,31254;1192,00870;0,12889
275,09001;18,33924;1191,30053;0,12909
275,49001;18,36593;1191,62640;0,12929
275,89001;18,39251;1191,53867;0,12949
276,29001;18,41912;1191,69224;0,12970
276,69001;18,44588;1192,04316;0,12990
277,09001;18,47257;1191,26290;0,13011
277,49001;18,49927;1191,20339;0,13031
277,89001;18,52582;1191,34439;0,13051
278,29001;18,55249;1190,91514;0,13072
278,69001;18,57918;1191,06863;0,13092
279,09001;18,60593;1191,07803;0,13112
279,49001;18,63254;1191,47599;0,13133
279,89001;18,65912;1191,31934;0,13153
280,29001;18,68585;1192,14971;0,13173
280,69001;18,71257;1191,29736;0,13194
281,09001;18,73927;1191,49797;0,13214
281,49001;18,76582;1190,86811;0,13234
281,89001;18,79246;1190,57354;0,13255
282,29001;18,81921;1191,25666;0,13275
282,69001;18,84590;1190,26331;0,13296
283,09001;18,87257;1190,88376;0,13316
283,49001;18,89918;1190,30410;0,13337
283,89001;18,92582;1190,73652;0,13357
284,29001;18,95254;1190,86811;0,13378
284,69001;18,97924;1190,33232;0,13399
285,09001;19,00588;1191,12814;0,13419
285,49001;19,03251;1190,33232;0,13439
285,89001;19,05918;1191,05922;0,13460
286,29001;19,08585;1190,40441;0,13481
286,69001;19,11260;1190,20073;0,13502
287,09001;19,13918;1189,51136;0,13522
287,49001;19,16588;1190,42629;0,13543
287,89001;19,19246;1189,91556;0,13564
288,29001;19,21921;1190,68325;0,13585
288,69001;19,24593;1190,71454;0,13606
289,09001;19,27249;1190,64255;0,13626
289,49001;19,29921;1190,32916;0,13647
289,89001;19,32582;1190,00953;0,13668
290,29001;19,35260;1189,08836;0,13689
290,69001;19,37915;1190,52660;0,13709
291,09001;19,40588;1190,41372;0,13731
291,49001;19,43251;1190,10042;0,13752
291,89001;19,45921;1190,36045;0,13773
292,29001;19,48582;1190,09102;0,13793
292,69001;19,51251;1190,91198;0,13814
293,09001;19,53927;1189,86545;0,13836
293,49001;19,56588;1190,45135;0,13857
293,89001;19,59251;1190,49838;0,13878
294,29001;19,61918;1189,70247;0,13898
294,69001;19,64585;1190,19132;0,13919
295,09001;19,67254;1190,12864;0,13941
295,49001;19,69921;1190,48897;0,13962
295,89001;19,72590;1190,13488;0,13984
296,29001;19,75254;1190,17251;0,14005
296,69001;19,77912;1190,23202;0,14026
297,09001;19,80587;1190,31658;0,14048
297,49001;19,83260;1189,46750;0,14069
297,89001;19,85924;1190,59235;0,14091
298,29001;19,88582;1190,00645;0,14111
298,69001;19,91249;1190,00645;0,14133
299,09001;19,93921;1190,34797;0,14154
299,49001;19,96593;1189,87486;0,14175
299,89001;19,99251;1190,28846;0,14197
300,29001;20,01915;1190,35421;0,14218
300,69001;20,04585;1189,55523;0,14240
301,09001;20,07251;1190,58611;0,14261
301,49001;20,09927;1189,65544;0,14283
301,89001;20,12587;1190,81168;0,14304
302,29001;20,15248;1190,04399;0,14325
302,69001;20,17912;1190,36678;0,14347
303,09001;20,20590;1190,17875;0,14368
303,49001;20,23260;1189,50503;0,14390
303,89001;20,25924;1190,05032;0,14411
304,29001;20,28570;1189,20738;0,14432
304,69001;20,31254;1189,72128;0,14454
305,09001;20,33918;1190,34797;0,14476
305,49001;20,36593;1190,10666;0,14498
305,89001;20,39254;1190,32292;0,14519
306,29001;20,41909;1190,00953;0,14540
306,69001;20,44585;1190,28846;0,14562
307,09001;20,47251;1190,45135;0,14584
307,49001;20,49932;1190,13172;0,14605
307,89001;20,52582;1190,66127;0,14627
308,29001;20,55248;1190,57987;0,14649
308,69001;20,57915;1190,05656;0,14670
309,09001;20,60590;1190,14429;0,14692
309,49001;20,63260;1189,72128;0,14714
309,89001;20,65915;1190,78979;0,14736
310,29001;20,68582;1190,47016;0,14758
310,69001;20,71251;1190,55165;0,14780
311,09001;20,73926;1190,10042;0,14802
311,49001;20,76590;1190,72394;0,14824
311,89001;20,79245;1191,12814;0,14845
312,29001;20,81918;1191,01536;0,14868
312,69001;20,84584;1191,36637;0,14890
313,09001;20,87260;1191,08744;0,14912
313,49001;20,89921;1191,56055;0,14933
313,89001;20,92582;1190,68949;0,14956
314,29001;20,95254;1191,90840;0,14978
314,69001;20,97921;1191,55124;0,14999
315,09001;21,00590;1191,79245;0,15022
315,49001;21,03254;1192,14654;0,15044
315,89002;21,05918;1191,93979;0,15066
316,29002;21,08579;1191,56372;0,15088
316,69002;21,11257;1190,63314;0,15111
317,09002;21,13923;1191,46341;0,15133
317,49002;21,16590;1191,48856;0,15155
317,89002;21,19245;1191,58877;0,15177
318,29002;21,21918;1191,83948;0,15199
318,69002;21,24593;1191,88651;0,15222
319,09002;21,27254;1192,20605;0,15244
319,49002;21,29921;1191,81750;0,15266
319,89002;21,32579;1191,70472;0,15288
320,29002;21,35254;1191,57312;0,15311
320,69002;21,37918;1191,56372;0,15333
321,09002;21,40593;1191,96791;0,15355
321,49002;21,43251;1191,65145;0,15377
321,89002;21,45918;1192,30319;0,15400
322,29002;21,48579;1192,65104;0,15422
322,69002;21,51257;1192,85472;0,15444
323,09002;21,53929;1192,44419;0,15467
323,49002;21,56584;1192,18417;0,15489
323,89002;21,59248;1192,94561;0,15512
324,29002;21,61915;1192,83590;0,15534
324,69002;21,64593;1192,16219;0,15557
325,09002;21,67257;1192,47865;0,15579
325,49002;21,69921;1193,09286;0,15602
325,89002;21,72581;1192,37844;0,15625
326,29002;21,75248;1192,50380;0,15648
326,69002;21,77918;1193,02394;0,15670
327,09002;21,80590;1192,43478;0,15692
327,49002;21,83260;1193,07721;0,15715
327,89002;21,85915;1193,09593;0,15738
328,29002;21,88579;1193,17118;0,15760
328,69002;21,91254;1193,79787;0,15783
329,09002;21,93926;1193,40308;0,15807
329,49002;21,96593;1193,24010;0,15829
329,89002;21,99245;1194,36188;0,15852
330,29002;22,01918;1194,21771;0,15875
330,69002;22,04587;1194,04225;0,15898
331,09002;22,07251;1193,73519;0,15921
331,49002;22,09923;1193,68508;0,15943
331,89002;22,12584;1193,64429;0,15966
332,29002;22,15251;1194,70656;0,15989
332,69002;22,17915;1193,80103;0,16012
333,09002;22,20590;1194,23969;0,16035
333,49002;22,23254;1195,30819;0,16059
333,89002;22,25923;1194,30544;0,16082
334,29002;22,28579;1194,91341;0,16105
334,69002;22,31260;1194,57180;0,16128
335,09002;22,33918;1194,75359;0,16151
335,49002;22,36587;1194,77864;0,16174
335,89002;22,39254;1194,79112;0,16198
336,29002;22,41915;1194,62507;0,16221
336,69002;22,44587;1195,03243;0,16244
337,09002;22,47248;1195,81576;0,16267
337,49002;22,49923;1195,84715;0,16290
337,89002;22,52587;1195,19848;0,16313
338,29002;22,55254;1194,76300;0,16337
338,69002;22,57918;1194,74726;0,16360
339,09002;22,60590;1196,02261;0,16383
339,49002;22,63254;1195,63090;0,16407
339,89002;22,65918;1195,85022;0,16430
340,29002;22,68587;1195,27997;0,16453
340,69002;22,71251;1195,83774;0,16477
341,09002;22,73921;1196,39551;0,16500
341,49002;22,76587;1196,11658;0,16524
341,89002;22,79248;1195,81576;0,16547
342,29002;22,81923;1195,75625;0,16571
342,69002;22,84584;1195,63090;0,16594
343,09002;22,87254;1195,94429;0,16617
343,49002;22,89923;1196,61484;0,16641
343,89002;22,92584;1195,55881;0,16664
344,29002;22,95257;1196,73386;0,16688
344,69002;22,97915;1196,56157;0,16712
345,09002;23,00587;1196,29204;0,16736
345,49002;23,03254;1196,95952;0,16759
345,89002;23,05923;1196,76832;0,16783
346,29002;23,08581;1197,03785;0,16807
346,69002;23,11257;1197,14122;0,16831
347,09002;23,13918;1198,23162;0,16855
347,49002;23,16593;1196,39859;0,16878
347,89002;23,19248;1197,07547;0,16902
348,29002;23,21915;1197,21955;0,16926
348,69002;23,24590;1196,85922;0,16950
349,09002;23,27251;1197,51720;0,16974
349,49002;23,29923;1197,17261;0,16997
349,89002;23,32584;1197,90267;0,17022
350,29002;23,35254;1197,76474;0,17046
350,69002;23,37917;1197,93713;0,17069
351,09002;23,40593;1198,22538;0,17094
351,49002;23,43254;1198,06556;0,17117
351,89002;23,45920;1198,04051;0,17142
352,29002;23,48576;1198,37578;0,17165
352,69002;23,51253;1198,40717;0,17190
353,09002;23,53929;1198,92731;0,17214
353,49002;23,56590;1198,47916;0,17238
353,89002;23,59248;1198,52303;0,17262
354,29002;23,61915;1198,21914;0,17286
354,69002;23,64590;1199,47251;0,17311
355,09002;23,67256;1199,34091;0,17335
355,49002;23,69923;1198,67343;0,17359
355,89002;23,72584;1199,46934;0,17383
356,29002;23,75254;1199,17169;0,17407
356,69002;23,77917;1198,41965;0,17431
357,09002;23,80590;1199,15288;0,17455
357,49002;23,83259;1199,42240;0,17480
357,89002;23,85915;1199,78273;0,17504
358,29002;23,88578;1199,31586;0,17528
358,69002;23,91254;1199,83600;0,17553
359,09002;23,93923;1200,56607;0,17577
359,49002;23,96593;1200,04592;0,17602
359,89002;23,99245;1199,25942;0,17626
360,29002;24,01917;1200,25584;0,17651
360,69002;24,04584;1200,10860;0,17675
361,09002;24,07251;1200,85431;0,17699
361,49002;24,09926;1199,48499;0,17724
361,89002;24,12584;1200,75718;0,17749
362,29002;24,15251;1199,51954;0,17773
362,69002;24,17914;1200,86372;0,17798
363,09002;24,20592;1200,30912;0,17823
363,49002;24,23256;1200,94521;0,17847
363,89002;24,25920;1200,36555;0,17872
364,29002;24,28575;1201,03918;0,17896
364,69002;24,31254;1201,32118;0,17921
365,09002;24,33920;1201,04235;0,17946
365,49002;24,36590;1201,13008;0,17971
365,89002;24,39253;1200,86372;0,17996
366,29002;24,41914;1201,21464;0,18020
366,69002;24,44587;1201,13948;0,18045
367,09002;24,47254;1202,02312;0,18070
367,49002;24,49926;1201,70973;0,18095
367,89002;24,52584;1201,71607;0,18120
368,29002;24,55251;1201,21464;0,18145
368,69002;24,57917;1202,06075;0,18170
369,09002;24,60590;1202,58089;0,18195
369,49002;24,63254;1201,71914;0,18220
369,89002;24,65917;1202,07947;0,18245
370,29002;24,68584;1201,96044;0,18270
370,69002;24,71254;1202,23304;0,18295
371,09002;24,73926;1201,73795;0,18320
371,49002;24,76587;1202,71249;0,18345
371,89002;24,79248;1202,94429;0,18370
372,29002;24,81917;1202,82210;0,18396
372,69002;24,84587;1202,34899;0,18421
373,09002;24,87256;1202,42108;0,18446
373,49002;24,89920;1202,73130;0,18472
373,89002;24,92581;1201,90401;0,18497
374,29002;24,95256;1203,08222;0,18522
374,69002;24,97920;1203,30779;0,18547
375,09002;25,00590;1202,79389;0,18572
375,49002;25,03253;1203,46444;0,18598
375,89002;25,05917;1202,94429;0,18623
376,29002;25,08581;1202,80329;0,18648
376,69002;25,11256;1203,03202;0,18674
377,09002;25,13917;1203,93448;0,18699
377,49002;25,16593;1202,78141;0,18724
377,89002;25,19245;1203,38304;0,18749
378,29002;25,21920;1203,76525;0,18775
378,69002;25,24592;1203,01014;0,18801
379,09002;25,27253;1203,87496;0,18826
379,49002;25,29923;1203,63683;0,18852
379,89002;25,32584;1203,75585;0,18878
380,29002;25,35256;1204,00339;0,18903
380,69002;25,37917;1202,87230;0,18928
381,09002;25,40593;1203,97527;0,18954
381,49002;25,43254;1203,68693;0,18980
381,89002;25,45923;1204,10370;0,19005
382,29002;25,48578;1203,61485;0,19031
382,69002;25,51254;1203,77783;0,19057
383,09002;25,53926;1205,07190;0,19083
383,49002;25,56587;1204,73038;0,19108
383,89002;25,59248;1204,59255;0,19134
384,29002;25,61914;1204,53928;0,19160
384,69002;25,64590;1204,89337;0,19186
385,09002;25,67256;1205,17537;0,19212
385,49002;25,69923;1204,60195;0,19237
385,89002;25,72584;1205,10636;0,19263
386,29002;25,75251;1205,07823;0,19289
386,69002;25,77914;1205,65165;0,19315
387,09002;25,80590;1205,85840;0,19341
387,49002;25,83259;1205,24429;0,19367
387,89002;25,85917;1204,66454;0,19393
388,29002;25,88578;1205,92425;0,19419
388,69002;25,91253;1206,53836;0,19446
389,09002;25,93923;1206,02762;0,19472
389,49002;25,96595;1205,19726;0,19498
389,89002;25,99245;1205,73938;0,19524
390,29002;26,01917;1205,23171;0,19550
390,69002;26,04587;1205,96495;0,19576
391,09002;26,07254;1206,68253;0,19602
391,49002;26,09926;1206,28774;0,19629
391,89002;26,12581;1207,00840;0,19655
392,29002;26,15248;1207,16821;0,19681
392,69002;26,17917;1205,90543;0,19707
393,09002;26,20593;1206,62302;0,19734
393,49002;26,23256;1206,31279;0,19760
393,89002;26,25920;1206,52895;0,19786
394,29002;26,28575;1206,51331;0,19812
394,69002;26,31259;1206,06525;0,19839
395,09002;26,33920;1207,19643;0,19865
395,49002;26,36590;1207,72906;0,19892
395,89002;26,39251;1207,50973;0,19918
396,29002;26,41914;1206,67936;0,19944
396,69002;26,44587;1207,04286;0,19971
397,09002;26,47253;1208,10820;0,19997
397,49002;26,49923;1207,74163;0,20024
397,89002;26,52584;1206,94572;0,20051
398,29002;26,55253;1207,39695;0,20077
398,69002;26,57917;1207,56924;0,20103
399,09002;26,60590;1208,11136;0,20130
399,49002;26,63253;1208,09572;0,20157
399,89002;26,65917;1207,66954;0,20183
400,29002;26,68587;1207,79490;0,20210
400,69002;26,71251;1206,93948;0,20237
401,09002;26,73923;1207,84184;0,20264
401,49002;26,76587;1208,13325;0,20291
401,89002;26,79248;1208,03928;0,20317
402,29002;26,81917;1208,27118;0,20344
402,69002;26,84587;1208,07057;0,20371
403,09002;26,87256;1209,38979;0,20398
403,49002;26,89920;1207,93590;0,20424
403,89002;26,92584;1207,92333;0,20452
404,29002;26,95253;1208,29307;0,20479
404,69002;26,97920;1209,24255;0,20506
405,09002;27,00589;1208,44664;0,20532
405,49002;27,03253;1208,96678;0,20559
405,89002;27,05920;1208,83519;0,20587
406,29002;27,08581;1208,91668;0,20613
406,69002;27,11259;1208,27742;0,20641
407,09002;27,13920;1208,63467;0,20668
407,49002;27,16592;1208,49051;0,20695
407,89002;27,19245;1208,87281;0,20722
408,29002;27,21917;1208,65339;0,20749
408,69002;27,24592;1208,93857;0,20776
409,09002;27,27253;1210,52405;0,20804
409,49002;27,29920;1209,56525;0,20831
409,89002;27,32581;1209,64358;0,20858
410,29002;27,35256;1209,39296;0,20886
410,69002;27,37920;1209,97578;0,20913
411,09002;27,40592;1209,82844;0,20940
411,49002;27,43253;1209,90369;0,20967
411,89002;27,45920;1209,68437;0,20995
412,29002;27,48578;1209,70942;0,21022
412,69002;27,51253;1210,22640;0,21049
413,09002;27,53926;1211,22915;0,21077
413,49002;27,56587;1210,48335;0,21104
413,89002;27,59250;1210,62435;0,21131
414,29002;27,61917;1210,61495;0,21159
414,69002;27,64589;1210,08540;0,21186
415,09002;27,67256;1210,47711;0,21214
415,49002;27,69923;1210,57732;0,21241
415,89002;27,72584;1210,50533;0,21269
416,29002;27,75253;1211,06617;0,21297
416,69002;27,77917;1210,41127;0,21324
417,09002;27,80592;1211,02547;0,21352
417,49002;27,83259;1210,80922;0,21380
417,89002;27,85917;1210,91893;0,21407
418,29002;27,88578;1211,64583;0,21435
418,69002;27,91253;1211,12261;0,21462
419,09002;27,93920;1211,53621;0,21490
419,49002;27,96592;1210,68703;0,21518
419,89002;27,99247;1211,17271;0,21545
420,29002;28,01920;1211,31996;0,21573
420,69002;28,04589;1211,59572;0,21602
421,09002;28,07253;1211,70543;0,21629
421,49002;28,09925;1211,97803;0,21657
421,89002;28,12584;1210,85932;0,21685
422,29002;28,15250;1211,89030;0,21713
422,69002;28,17914;1211,52056;0,21740
423,09002;28,20589;1212,15973;0,21769
423,49002;28,23259;1212,00308;0,21797
423,89002;28,25923;1211,32629;0,21825
424,29002;28,28578;1211,60513;0,21852
424,69002;28,31256;1211,80881;0,21881
425,09002;28,33920;1212,22241;0,21909
425,49002;28,36592;1211,25104;0,21937
425,89002;28,39253;1212,00308;0,21965
426,29002;28,41914;1212,78325;0,21993
426,69002;28,44587;1212,77701;0,22021
427,09002;28,47253;1212,23805;0,22050
427,49002;28,49926;1213,07783;0,22077
427,89002;28,52581;1213,00574;0,22106
428,29002;28,55253;1213,10605;0,22134
428,69002;28,57917;1212,30073;0,22162
429,09002;28,60589;1213,35043;0,22191
429,49002;28,63250;1213,68887;0,22219
429,89002;28,65917;1212,91801;0,22247
430,29002;28,68586;1213,42251;0,22276
430,69002;28,71253;1213,09664;0,22304
431,09002;28,73925;1213,06526;0,22332
431,49002;28,76584;1213,64808;0,22361
431,89002;28,79247;1213,14991;0,22389
432,29002;28,81920;1213,67946;0,22417
432,69002;28,84589;1213,38181;0,22445
433,09002;28,87256;1213,40994;0,22474
433,49002;28,89920;1213,67322;0,22502
433,89002;28,92584;1213,25646;0,22530
434,29002;28,95256;1213,53222;0,22559
434,69002;28,97917;1214,14317;0,22588
435,09002;29,00586;1213,44756;0,22616
435,49002;29,03250;1213,93008;0,22645
435,89002;29,05923;1213,37548;0,22673
436,29002;29,08581;1213,08407;0,22702
436,69002;29,11259;1214,28110;0,22731
437,09002;29,13917;1213,69194;0,22759
437,49002;29,16592;1214,24971;0,22788
437,89002;29,19248;1213,83928;0,22816
438,29002;29,21917;1213,87998;0,22845
438,69002;29,24592;1214,38764;0,22874
439,09002;29,27253;1214,06801;0,22903
439,49002;29,29923;1215,07384;0,22932
439,89002;29,32584;1214,34685;0,22960
440,29002;29,35256;1214,02098;0,22989
440,69002;29,37917;1215,00492;0,23018
441,09002;29,40592;1214,40636;0,23047
441,49002;29,43253;1214,83570;0,23076
441,89002;29,45920;1214,09306;0,23105
442,29002;29,48578;1214,56617;0,23134
442,69002;29,51253;1215,04245;0,23163
443,09002;29,53925;1214,37823;0,23192
443,49002;29,56586;1215,38090;0,23221
443,89002;29,59250;1215,50001;0,23250
444,29002;29,61914;1214,88897;0,23279
444,69002;29,64586;1215,55012;0,23308
445,09002;29,67256;1215,58774;0,23337
445,49002;29,69925;1215,52814;0,23366
445,89002;29,72586;1215,47179;0,23395
446,29002;29,75253;1216,00134;0,23424
446,69002;29,77914;1215,49061;0,23453
447,09002;29,80589;1215,56893;0,23483
447,49002;29,83259;1215,22425;0,23512
447,89002;29,85917;1215,70360;0,23541
448,29002;29,88581;1216,09848;0,23570
448,69002;29,91253;1215,96688;0,23599
449,09002;29,93925;1216,16423;0,23628
449,49002;29,96592;1215,39347;0,23658
449,89002;29,99244;1215,51873;0,23687
450,29002;30,01920;1216,01382;0,23716
450,69002;30,04587;1216,19562;0,23745
451,09002;30,07253;1216,06402;0,23775
451,49002;30,09925;1216,23632;0,23804
451,89002;30,12583;1216,12037;0,23834
452,29002;30,15250;1217,00717;0,23863
452,69002;30,17917;1215,86975;0,23892
453,09002;30,20589;1216,66873;0,23922
453,49002;30,23259;1216,53397;0,23952
453,89002;30,25922;1216,00442;0,23981
454,29002;30,28575;1216,11096;0,24010
454,69002;30,31256;1216,54971;0,24040
455,09002;30,33920;1216,44000;0,24070
455,49002;30,36589;1217,10431;0,24099
455,89002;30,39253;1216,54030;0,24129
456,29002;30,41914;1216,97271;0,24158
456,69002;30,44586;1216,58100;0,24188
457,09002;30,47250;1217,35493;0,24217
457,49002;30,49923;1216,93509;0,24247
457,89002;30,52581;1217,01965;0,24276
458,29002;30,55253;1217,07609;0,24306
458,69002;30,57917;1217,06985;0,24335
459,09002;30,60589;1216,93509;0,24365
459,49002;30,63250;1217,03846;0,24395
459,89002;30,65920;1217,39255;0,24424
460,29002;30,68586;1217,53355;0,24454
460,69002;30,71253;1217,31106;0,24484
461,09002;30,73922;1218,05687;0,24514
461,49002;30,76589;1217,86259;0,24544
461,89002;30,79247;1217,36750;0,24574
462,29002;30,81920;1218,45482;0,24604
462,69002;30,84586;1218,14143;0,24634
463,09002;30,87256;1217,52732;0,24664
463,49002;30,89922;1218,16024;0,24694
463,89002;30,92581;1217,97854;0,24724
464,29002;30,95253;1218,39214;0,24753
464,69002;30,97920;1217,89705;0,24783
465,09002;31,00586;1218,24173;0,24813
465,49002;31,03256;1218,03181;0,24844
465,89002;31,05920;1218,82763;0,24874
466,29002;31,08581;1217,44266;0,24904
466,69002;31,11259;1218,09132;0,24934
467,09002;31,13919;1218,37649;0,24964
467,49002;31,16592;1218,21035;0,24993
467,89002;31,19244;1218,39521;0,25023
468,29002;31,21917;1218,42036;0,25053
468,69002;31,24592;1217,88140;0,25084
469,09002;31,27253;1218,35452;0,25113
469,49002;31,29922;1218,18222;0,25143
469,89002;31,32580;1218,52690;0,25173
470,29002;31,35255;1218,26995;0,25204
470,69002;31,37914;1218,87466;0,25234
471,09002;31,40589;1218,35768;0,25264
471,49002;31,43253;1218,29500;0,25294
471,89002;31,45922;1218,06627;0,25324
472,29002;31,48580;1218,88090;0,25354
472,69002;31,51256;1218,77436;0,25384
473,09002;31,53928;1217,45840;0,25414
473,49002;31,56586;1218,73682;0,25444
473,89002;31,59250;1218,43908;0,25474
474,29002;31,61913;1218,92169;0,25504
474,69002;31,64589;1218,89347;0,25534
475,09002;31,67258;1218,94991;0,25565
475,49002;31,69922;1218,47671;0,25595
475,89002;31,72583;1217,95656;0,25626
476,29002;31,75253;1218,77436;0,25656
476,69002;31,77919;1218,71177;0,25687
477,09002;31,80589;1218,64909;0,25717
477,49002;31,83261;1218,70544;0,25748
477,89002;31,85919;1218,60206;0,25778
478,29002;31,88580;1219,28202;0,25809
478,69002;31,91253;1219,11904;0,25840
479,09002;31,93922;1219,34153;0,25872
479,49002;31,96592;1219,23191;0,25903
479,89002;31,99244;1218,37333;0,25933
480,29002;32,01919;1218,77752;0,25964
480,69002;32,04589;1219,02190;0,25995
481,09002;32,07256;1219,25063;0,26026
481,49002;32,09925;1219,08775;0,26056
481,89002;32,12583;1219,23191;0,26086
482,29002;32,15250;1220,35053;0,26117
482,69002;32,17917;1220,15001;0,26148
483,09002;32,20592;1219,69879;0,26179
483,49002;32,23258;1219,38856;0,26209
483,89002;32,25922;1219,30083;0,26240
484,29002;32,28575;1219,29767;0,26271
484,69002;32,31255;1219,83346;0,26301
485,09002;32,33922;1219,76770;0,26332
485,49002;32,36591;1220,37558;0,26363
485,89002;32,39252;1219,81781;0,26393
486,29002;32,41913;1219,97446;0,26424
486,69002;32,44589;1219,55778;0,26455
487,09002;32,47252;1220,41320;0,26485
487,49002;32,49925;1219,66740;0,26516
487,89002;32,52580;1219,77711;0,26547
488,29002;32,55253;1220,37241;0,26577
488,69002;32,57916;1220,21893;0,26608
489,09002;32,60592;1220,69828;0,26638
489,49002;32,63253;1220,08100;0,26668
489,89002;32,65916;1219,96822;0,26697
490,29002;32,68586;1219,86484;0,26727
490,69002;32,71253;1220,89572;0,26756
491,09002;32,73925;1220,51034;0,26786
491,49002;32,76586;1220,35053;0,26815
491,89002;32,79247;1220,16249;0,26844
492,29002;32,81916;1220,03406;0,26875
492,69002;32,84586;1220,85810;0,26905
493,09002;32,87255;1220,55104;0,26935
493,49002;32,89922;1220,36301;0,26965
493,89002;32,92580;1220,58243;0,26995
494,29002;32,95252;1221,23417;0,27025
494,69002;32,97919;1220,25646;0,27055
495,09002;33,00586;1220,56985;0,27086
495,49002;33,03256;1220,14685;0,27117
495,89002;33,05922;1220,04971;0,27148
496,29002;33,08580;1220,60748;0,27179
496,69002;33,11258;1219,94317;0,27209
497,09002;33,13916;1220,59807;0,27240
497,49002;33,16592;1219,76146;0,27269
497,89002;33,19244;1219,73008;0,27300
498,29002;33,21916;1221,27486;0,27330
498,69002;33,24591;1219,74573;0,27361
499,09002;33,27252;1220,22200;0,27390
499,49002;33,29922;1219,85227;0,27420
499,89002;33,32583;1219,99020;0,27450
500,29002;33,35252;1220,20636;0,27479
500,69002;33,37916;1220,20328;0,27509
501,09002;33,40592;1220,16249;0,27539
501,49002;33,43255;1220,27844;0,27569
501,89002;33,45922;1219,91187;0,27599
502,29002;33,48577;1219,29767;0,27628
502,69002;33,51255;1220,01832;0,27658
503,09002;33,53928;1219,42619;0,27688
503,49002;33,56589;1219,61730;0,27716
503,89002;33,59250;1218,74930;0,27745
504,29002;33,61913;1219,59532;0,27774
504,69002;33,64591;1219,24756;0,27804
505,09002;33,67258;1218,39838;0,27833
505,49002;33,69925;1218,61771;0,27863
505,89002;33,72586;1218,51433;0,27892
506,29002;33,75252;1219,36351;0,27922
506,69002;33,77913;1218,03805;0,27951
507,09002;33,80591;1217,86259;0,27980
507,49002;33,83261;1217,59940;0,28009
507,89002;33,85916;1217,23274;0,28038
508,29002;33,88577;1217,89081;0,28065
508,69002;33,91255;1216,54654;0,28093
509,09002;33,93925;1217,51791;0,28122
509,49002;33,96594;1216,34603;0,28149
509,89002;33,99244;1215,92609;0,28178
510,29002;34,01919;1215,69112;0,28205
510,69002;34,04586;1214,86699;0,28233
511,09002;34,07255;1214,96413;0,28260
511,49002;34,09925;1213,91760;0,28287
511,89002;34,12583;1213,89255;0,28314
512,29002;34,15250;1212,77384;0,28342
512,69002;34,17916;1212,33836;0,28368
513,09002;34,20594;1210,94398;0,28394
513,49002;34,23255;1210,09480;0,28419
513,89002;34,25922;1208,67854;0,28444
514,29002;34,28574;1207,95779;0,28468
514,69002;34,31255;1205,66729;0,28492
515,09002;34,33919;1204,30738;0,28514
515,49002;34,36586;1202,58089;0,28535
515,89002;34,39252;1200,40942;0,28555
516,29002;34,41913;1198,19408;0,28574
516,69002;34,44589;1195,46168;0,28591
517,09002;34,47252;1192,65420;0,28606
517,49002;34,49922;1187,69398;0,28618
517,89002;34,52586;1181,37700;0,28625
518,29002;34,55252;1172,67547;0,28627
518,69002;34,57916;1155,50430;0,28628
518,92602;34,59489;638,30419;0,27601