File: 02_Appendices/Appendix_C_Experimental_Data/C_1_Materials_Tests/C_1_1_Tensile_tests/C_1_1_2_Quanton Iron/Specimen_RawData_4.csv
Text Inputs : Specimen label;"1"
Dimension : Length;50,00000;mm
Dimension : Final length;100,00000;mm
Test : Rate 1;4,00000;mm/min
General : Unique Identifier;"{69B5B0BA-2DBE-4E4E-997A-A440CEAD9871}"

Time;Extension;Load;Strain 1
(sec);(mm);(N);(mm/mm)
0,00000;0,00000;-2,37571;-0,00006
0,70000;0,04595;23,68812;0,00021
1,40000;0,09333;54,69650;0,00056
2,10000;0,14003;81,52489;0,00089
2,80000;0,18664;105,99068;0,00120
3,50000;0,23336;114,10625;0,00136
4,20000;0,27994;114,48853;0,00141
4,90000;0,32664;115,01494;0,00145
5,60000;0,37330;115,22801;0,00148
6,30000;0,41997;115,11208;0,00150
7,00000;0,46664;116,19624;0,00152
7,70000;0,51336;117,18328;0,00155
8,40000;0,56000;122,61351;0,00161
9,10000;0,60669;139,16426;0,00179
9,80000;0,65336;156,98405;0,00201
10,50000;0,70003;177,58945;0,00226
11,20000;0,74667;197,72798;0,00252
11,90000;0,79330;220,02542;0,00281
12,60000;0,83997;241,42358;0,00309
13,30000;0,88661;261,03884;0,00336
14,00000;0,93333;280,76689;0,00364
14,70000;0,98000;299,89332;0,00391
15,40000;1,02667;318,40247;0,00418
16,10000;1,07336;336,43846;0,00445
16,80000;1,12003;354,42745;0,00473
17,50000;1,16669;373,89856;0,00502
18,20000;1,21336;393,22553;0,00532
18,90000;1,26000;412,96924;0,00561
19,60000;1,30667;432,00166;0,00590
20,30000;1,35333;448,50856;0,00617
21,00000;1,40003;464,27906;0,00644
21,70000;1,44672;481,11184;0,00671
22,40000;1,49330;497,75345;0,00697
23,10000;1,54008;512,40535;0,00723
23,80000;1,58664;528,54563;0,00749
24,50000;1,63336;543,38556;0,00775
25,20000;1,68000;558,70800;0,00801
25,90000;1,72664;573,47268;0,00827
26,60000;1,77327;588,75754;0,00853
27,30000;1,82000;603,25903;0,00878
28,00000;1,86664;618,01746;0,00904
28,70000;1,91336;632,72263;0,00930
29,40000;1,96003;647,01419;0,00956
30,10000;2,00669;661,70054;0,00981
30,80000;2,05336;674,71680;0,01007
31,50000;2,10005;689,03971;0,01033
32,20000;2,14666;703,35320;0,01059
32,90000;2,19327;718,51895;0,01085
33,60000;2,24000;732,12115;0,01111
34,30000;2,28661;745,73904;0,01137
35,00000;2,33330;760,12458;0,01164
35,70000;2,37997;772,95597;0,01190
36,40000;2,42664;787,73005;0,01217
37,10000;2,47330;801,84927;0,01244
37,80000;2,52003;814,30776;0,01271
38,50000;2,56664;828,58987;0,01298
39,20000;2,61336;842,60888;0,01326
39,90000;2,65997;855,68149;0,01353
40,60000;2,70664;870,14856;0,01380
41,30000;2,75333;883,02381;0,01408
42,00000;2,80000;896,74816;0,01436
42,70000;2,84666;909,74560;0,01463
43,40000;2,89333;922,44539;0,01491
44,10000;2,94003;936,85603;0,01518
44,80000;2,98666;948,62208;0,01545
45,50000;3,03336;961,32187;0,01573
46,20000;3,07997;973,77719;0,01601
46,90000;3,12663;985,44918;0,01629
47,60000;3,17330;999,32086;0,01657
48,30000;3,21994;1012,54079;0,01687
49,00000;3,26669;1026,01768;0,01717
49,70000;3,31336;1038,38220;0,01747
50,40000;3,36005;1051,17597;0,01776
51,10000;3,40672;1063,94775;0,01806
51,80000;3,45336;1075,90184;0,01837
52,50000;3,50005;1087,36390;0,01866
53,20000;3,54672;1099,33047;0,01897
53,90000;3,59330;1112,08661;0,01928
54,60000;3,64000;1123,06299;0,01959
55,30000;3,68661;1134,40910;0,01989
56,00000;3,73336;1146,74233;0,02020
56,70000;3,77997;1157,40849;0,02051
57,40000;3,82669;1169,16196;0,02083
58,10000;3,87333;1180,40778;0,02114
58,80000;3,92002;1191,03640;0,02146
59,50000;3,96675;1201,48640;0,02179
60,20000;4,01336;1213,00798;0,02211
60,90000;4,05994;1223,52066;0,02244
61,60000;4,10669;1234,35911;0,02277
62,30000;4,15330;1244,60226;0,02310
63,00000;4,20002;1255,23088;0,02343
63,70000;4,24675;1265,40828;0,02377
64,40000;4,29330;1275,31616;0,02410
65,10000;4,34002;1285,60942;0,02445
65,80000;4,38669;1295,90901;0,02479
66,50000;4,43336;1306,21800;0,02514
67,20000;4,47997;1314,10481;0,02549
67,90000;4,52663;1324,42322;0,02584
68,60000;4,57327;1333,68559;0,02619
69,30000;4,61997;1342,40277;0,02655
70,00000;4,66666;1351,90021;0,02691
70,70000;4,71333;1360,38242;0,02728
71,40000;4,75999;1369,01187;0,02764
72,10000;4,80672;1377,12425;0,02802
72,80000;4,85333;1385,89786;0,02839
73,50000;4,90002;1393,61545;0,02877
74,20000;4,94666;1401,53049;0,02914
74,90000;4,99327;1409,00062;0,02952
75,60000;5,03997;1415,97874;0,02991
76,30000;5,08660;1423,98775;0,03030
77,00000;5,13333;1431,00983;0,03069
77,70000;5,17997;1438,11638;0,03108
78,40000;5,22666;1444,16075;0,03149
79,10000;5,27333;1451,54316;0,03189
79,80000;5,31999;1457,10809;0,03230
80,50000;5,36669;1464,17087;0,03271
81,20000;5,41333;1469,65748;0,03312
81,90000;5,45997;1476,13734;0,03354
82,60000;5,50666;1481,69920;0,03396
83,30000;5,55333;1487,23600;0,03439
84,00000;5,59999;1492,03008;0,03482
84,70000;5,64669;1498,09020;0,03525
85,40000;5,69336;1502,26392;0,03569
86,10000;5,74005;1506,54418;0,03613
86,80000;5,78663;1511,44173;0,03658
87,50000;5,83341;1516,17946;0,03703
88,20000;5,87996;1519,91136;0,03749
88,90000;5,92663;1524,70861;0,03795
89,60000;5,97333;1528,33397;0,03841
90,30000;6,01999;1531,90922;0,03887
91,00000;6,06669;1535,04889;0,03935
91,70000;6,11341;1538,10401;0,03982
92,40000;6,15999;1540,78938;0,04030
93,10000;6,20672;1544,05441;0,04078
93,80000;6,25338;1547,06873;0,04127
94,50000;6,30005;1549,13366;0,04176
95,20000;6,34669;1552,32660;0,04226
95,90000;6,39333;1554,36331;0,04276
96,60000;6,43999;1555,65124;0,04326
97,30000;6,48660;1558,25196;0,04377
98,00000;6,53335;1560,04112;0,04428
98,70000;6,57999;1560,69603;0,04480
99,40000;6,62663;1562,63243;0,04532
100,10000;6,67338;1563,50043;0,04585
100,80000;6,71999;1564,16781;0,04637
101,50000;6,76666;1566,60564;0,04691
102,20000;6,81335;1566,15432;0,04745
102,90000;6,85996;1567,68672;0,04799
103,60000;6,90663;1567,66474;0,04853
104,30000;6,95335;1568,73632;0,04908
105,00000;6,99999;1568,75197;0,04963
105,70001;7,04669;1569,16566;0,05019
106,34001;7,08931;1568,71118;0,05070
106,95201;7,12993;1569,68888;0,05119
107,65201;7,17666;1569,06229;0,05176
108,35201;7,22333;1568,69870;0,05234
109,05201;7,26999;1569,43202;0,05291
109,75201;7,31666;1567,97487;0,05349
110,45201;7,36335;1567,29501;0,05407
111,15201;7,41005;1566,29849;0,05466
111,85201;7,45669;1565,24256;0,05525
112,55201;7,50330;1565,89113;0,05584
113,25201;7,54999;1565,10789;0,05644
113,95201;7,59666;1563,07109;0,05703
114,65201;7,64335;1562,33162;0,05763
115,35201;7,68999;1560,96863;0,05824
116,05201;7,73669;1559,81556;0,05885
116,75201;7,78332;1558,96945;0,05946
117,45201;7,83008;1557,56576;0,06007
118,15201;7,87663;1555,34102;0,06068
118,85201;7,92335;1553,70850;0,06130
119,55201;7,96999;1552,32353;0,06192
120,25201;8,01666;1551,74378;0,06255
120,95201;8,06332;1549,64756;0,06317
121,65201;8,10999;1548,18734;0,06380
122,35201;8,15671;1545,85298;0,06444
123,05201;8,20335;1544,16403;0,06507
123,75201;8,25005;1542,71014;0,06571
124,45201;8,29671;1540,63273;0,06635
125,15201;8,34335;1538,90308;0,06699
125,85201;8,39005;1537,09818;0,06764
126,55201;8,43663;1535,91065;0,06829
127,25201;8,48321;1532,85870;0,06893
127,95201;8,53002;1531,51443;0,06958
128,65201;8,57663;1529,43693;0,07023
129,35201;8,62332;1527,48479;0,07089
130,05201;8,67005;1525,30400;0,07154
130,75201;8,71663;1523,73724;0,07220
131,45201;8,76332;1521,44041;0,07286
132,15201;8,81005;1518,79583;0,07352
132,85201;8,85666;1517,55810;0,07418
133,55201;8,90332;1515,18304;0,07484
134,25201;8,94999;1513,27476;0,07551
134,95201;8,99660;1511,32261;0,07617
135,65201;9,04332;1508,91300;0,07684
136,35201;9,08999;1507,16146;0,07751
137,05201;9,13663;1505,03386;0,07818
137,75201;9,18332;1503,63948;0,07885
138,45201;9,22999;1501,82210;0,07953
139,15201;9,27668;1498,50380;0,08020
139,85201;9,32332;1496,38243;0,08087
140,55201;9,36993;1494,64337;0,08156
141,25201;9,41663;1492,76964;0,08223
141,95201;9,46329;1491,57895;0,08291
142,65201;9,50999;1488,26689;0,08359
143,35201;9,55671;1485,97946;0,08428
144,05201;9,60335;1484,28120;0,08496
144,75201;9,65002;1482,58284;0,08564
145,45201;9,69671;1480,18263;0,08633
146,15201;9,74335;1478,97312;0,08701
146,85201;9,78996;1476,93017;0,08770
147,55201;9,83668;1474,54245;0,08839
148,25201;9,88324;1472,96954;0,08908
148,95201;9,93002;1471,60962;0,08977
149,65201;9,97663;1469,07466;0,09045
150,35201;10,02332;1466,58672;0,09114
151,05201;10,07002;1465,67486;0,09183
151,75201;10,11671;1462,95819;0,09252
152,45201;10,16335;1461,45103;0,09321
153,15201;10,21007;1459,25134;0,09390
153,85201;10,25668;1456,82609;0,09460
154,55201;10,30338;1455,99255;0,09529
155,25201;10,34996;1454,41331;0,09599
155,95201;10,39671;1452,13846;0,09668
156,65201;10,44332;1450,41822;0,09738
157,35201;10,48993;1448,20912;0,09807
158,05201;10,53671;1446,32282;0,09877
158,75201;10,58332;1444,44592;0,09946
159,45201;10,62999;1443,54980;0,10016
160,15201;10,67674;1441,22792;0,10086
160,85201;10,72332;1440,67015;0,10156
161,55201;10,76996;1438,93110;0,10226
162,25201;10,81665;1436,44940;0,10296
162,95201;10,86329;1435,16781;0,10366
163,65201;10,90999;1433,96463;0,10436
164,35201;10,95671;1431,98119;0,10507
165,05201;11,00332;1430,12926;0,10576
165,75201;11,05004;1428,09888;0,10647
166,45201;11,09671;1426,82353;0,10717
167,15201;11,14332;1425,94930;0,10787
167,85201;11,18999;1424,42016;0,10857
168,55201;11,23663;1422,59337;0,10928
169,25201;11,28323;1420,46893;0,10998
169,95201;11,32999;1418,80512;0,11068
170,65201;11,37663;1416,58038;0,11138
171,35201;11,42329;1416,36729;0,11209
172,05201;11,46999;1414,83508;0,11280
172,75201;11,51668;1412,24060;0,11350
173,45201;11,56335;1410,56105;0,11420
174,15201;11,60999;1409,17609;0,11491
174,85201;11,65671;1407,59060;0,11562
175,55201;11,70332;1407,35870;0,11632
176,25201;11,74996;1405,59766;0,11703
176,95201;11,79665;1403,79602;0,11773
177,65201;11,84332;1402,61780;0,11844
178,35201;11,88996;1401,22967;0,11914
179,05201;11,93668;1400,37118;0,11985
179,75201;11,98326;1397,93335;0,12056
180,45201;12,03004;1396,98079;0,12127
181,15201;12,07668;1395,86218;0,12198
181,85201;12,12335;1393,87241;0,12269
182,55201;12,16996;1394,12312;0,12339
183,25201;12,21665;1392,83836;0,12410
183,95201;12,26329;1390,65124;0,12481
184,65201;12,31004;1389,42925;0,12552
185,35201;12,35671;1388,43907;0,12623
186,05201;12,40340;1387,74030;0,12694
186,75201;12,45004;1386,11095;0,12765
187,45201;12,49671;1385,05809;0,12836
188,15201;12,54340;1383,17496;0,12907
188,85201;12,58998;1382,83968;0,12978
189,55201;12,63665;1381,26668;0,13049
190,25201;12,68332;1380,66821;0,13120
190,95201;12,72998;1379,08580;0,13191
191,65201;12,77665;1378,17087;0,13262
192,35201;12,82335;1377,13682;0,13333
193,05201;12,86998;1377,34991;0,13404
193,75201;12,91665;1374,80553;0,13475
194,45201;12,96340;1373,28580;0,13546
195,15201;13,01001;1372,96617;0,13617
195,85201;13,05668;1371,02352;0,13688
196,55201;13,10337;1370,95144;0,13759
197,25201;13,14999;1370,66310;0,13830
197,95201;13,19662;1368,03733;0,13901
198,65201;13,24335;1367,39807;0,13973
199,35201;13,28993;1366,68058;0,14044
200,05201;13,33668;1366,35778;0,14115
200,75201;13,38335;1365,28928;0,14187
201,45201;13,43001;1364,60001;0,14258
202,15201;13,47665;1363,56903;0,14329
202,85201;13,52335;1362,39408;0,14401
203,55201;13,56996;1361,56054;0,14472
204,25201;13,61662;1360,86177;0,14543
204,95201;13,66335;1359,83713;0,14615
205,65201;13,70995;1358,36443;0,14686
206,35201;13,75668;1357,30533;0,14757
207,05201;13,80335;1356,59091;0,14828
207,75201;13,85001;1355,74173;0,14900
208,45201;13,89668;1354,27536;0,14971
209,15201;13,94337;1353,76770;0,15042
209,85201;13,98996;1352,58958;0,15113
210,55201;14,03665;1351,94408;0,15185
211,25201;14,08326;1351,04163;0,15256
211,95201;14,12998;1350,01699;0,15328
212,65201;14,17662;1348,67588;0,15400
213,35201;14,22332;1348,78559;0,15471
214,05201;14,26998;1348,89521;0,15543
214,75201;14,31668;1346,44806;0,15614
215,45201;14,36335;1346,47936;0,15685
216,15201;14,41004;1345,55185;0,15757
216,85201;14,45668;1344,07599;0,15828
217,55201;14,50335;1343,95696;0,15900
218,25201;14,54998;1343,90686;0,15971
218,95201;14,59665;1342,41842;0,16043
219,65201;14,64332;1341,19950;0,16114
220,35201;14,69004;1341,17138;0,16186
221,05201;14,73668;1341,01463;0,16257
221,75201;14,78332;1339,75502;0,16329
222,45201;14,83007;1338,63641;0,16401
223,15201;14,87668;1338,54551;0,16472
223,85201;14,92334;1337,34541;0,16544
224,55201;14,97001;1336,80962;0,16615
225,25201;15,01662;1336,01371;0,16687
225,95201;15,06332;1335,69725;0,16758
226,65201;15,11004;1335,22721;0,16830
227,35201;15,15671;1334,14306;0,16901
228,05201;15,20332;1333,44121;0,16973
228,75201;15,25007;1333,08396;0,17044
229,45201;15,29668;1332,13140;0,17116
230,15201;15,34337;1332,31319;0,17187
230,85201;15,39004;1331,27281;0,17258
231,55201;15,43665;1330,56156;0,17330
232,25201;15,48323;1329,39909;0,17401
232,95201;15,53001;1329,04816;0,17473
233,65201;15,57662;1329,10144;0,17545
234,35201;15,62332;1327,94203;0,17616
235,05201;15,67001;1328,25533;0,17688
235,75201;15,71665;1326,51003;0,17759
236,45201;15,76331;1327,19316;0,17831
237,15201;15,81004;1326,51627;0,17903
237,85201;15,85668;1325,96483;0,17975
238,55201;15,90331;1325,37261;0,18046
239,25201;15,94998;1325,62015;0,18118
239,95201;15,99659;1323,88426;0,18189
240,65201;16,04331;1323,46749;0,18261
241,35201;16,08992;1323,29203;0,18332
242,05201;16,13668;1323,44244;0,18404
242,75201;16,18329;1321,33365;0,18476
243,45201;16,23004;1322,39582;0,18547
244,15201;16,27662;1322,21095;0,18619
244,85201;16,32334;1321,14561;0,18690
245,55201;16,36998;1320,15860;0,18762
246,25201;16,41662;1319,69173;0,18833
246,95201;16,46331;1319,41596;0,18904
247,65201;16,51001;1318,45716;0,18976
248,35201;16,55668;1318,38508;0,19048
249,05201;16,60337;1317,68314;0,19119
249,75201;16,65004;1317,69571;0,19191
250,45201;16,69667;1317,16300;0,19262
251,15201;16,74337;1315,70287;0,19334
251,85201;16,79001;1315,95349;0,19405
252,55201;16,83667;1315,79377;0,19477
253,25201;16,88329;1314,67506;0,19548
253,95201;16,92998;1314,55604;0,19620
254,65201;16,97665;1314,80666;0,19692
255,35201;17,02331;1313,99203;0,19763
256,05201;17,07004;1314,12363;0,19835
256,75201;17,11670;1312,70103;0,19907
257,45201;17,16337;1312,82639;0,19978
258,15201;17,21004;1311,84561;0,20050
258,85201;17,25673;1312,54746;0,20122
259,55201;17,30334;1312,09316;0,20194
260,25201;17,34998;1311,78293;0,20265
260,95201;17,39665;1310,92435;0,20337
261,65201;17,44334;1310,52332;0,20409
262,35201;17,48995;1309,94990;0,20480
263,05201;17,53673;1310,23815;0,20552
263,75201;17,58328;1309,67414;0,20623
264,45201;17,63004;1309,28876;0,20695
265,15201;17,67670;1308,25788;0,20767
265,85201;17,72331;1308,78109;0,20838
266,55201;17,76995;1308,77485;0,20910
267,25201;17,81667;1308,44582;0,20981
267,95201;17,86328;1307,59673;0,21053
268,65201;17,91001;1307,28334;0,21125
269,35201;17,95670;1306,77577;0,21196
270,05201;18,00334;1306,59398;0,21268
270,75201;18,05004;1306,05502;0,21340
271,45201;18,09667;1306,75063;0,21411
272,15201;18,14337;1305,50358;0,21482
272,85201;18,18998;1306,00175;0,21554
273,55201;18,23667;1305,94848;0,21626
274,25201;18,28323;1304,99285;0,21698
274,95201;18,32995;1304,17813;0,21770
275,65201;18,37665;1304,82046;0,21842
276,35201;18,42331;1304,73897;0,21913
277,05201;18,46995;1304,78600;0,21985
277,75201;18,51667;1304,53221;0,22057
278,45201;18,56331;1303,93682;0,22128
279,15201;18,61004;1302,77118;0,22200
279,85201;18,65670;1303,05318;0,22271
280,55201;18,70331;1303,05635;0,22343
281,25201;18,74998;1302,01606;0,22415
281,95201;18,79665;1302,05993;0,22486
282,65201;18,84331;1302,13825;0,22558
283,35201;18,88998;1301,29540;0,22629
284,05201;18,93667;1302,45788;0,22701
284,75201;18,98331;1301,52097;0,22773
285,45201;19,03001;1301,15123;0,22844
286,15201;19,07667;1300,51831;0,22916
286,85201;19,12334;1300,08589;0,22987
287,55201;19,16998;1300,84725;0,23059
288,25201;19,21662;1299,98559;0,23130
288,95201;19,26334;1300,47444;0,23202
289,65201;19,31001;1299,39960;0,23274
290,35201;19,35670;1298,58498;0,23345
291,05201;19,40337;1299,65348;0,23416
291,75201;19,45003;1298,74162;0,23488
292,45201;19,49670;1299,12393;0,23560
293,15201;19,54340;1298,60379;0,23631
293,85201;19,58998;1298,81054;0,23704
294,55201;19,63667;1298,26535;0,23775
295,25201;19,68328;1299,05501;0,23847
295,95201;19,73001;1298,24653;0,23919
296,65201;19,77662;1297,79847;0,23990
297,35201;19,82337;1297,89244;0,24062
298,05201;19,87001;1298,28099;0,24133
298,75201;19,91670;1298,03345;0,24204
299,45201;19,96340;1297,44755;0,24276
300,15201;20,01003;1298,04602;0,24347
300,85201;20,05667;1297,98651;0,24419
301,55201;20,10337;1297,38487;0,24491
302,25201;20,14995;1296,85216;0,24562
302,95201;20,19661;1297,34408;0,24634
303,65201;20,24334;1297,38487;0,24705
304,35201;20,28992;1296,68610;0,24777
305,05201;20,33667;1297,25011;0,24849
305,75201;20,38334;1297,28150;0,24919
306,45201;20,42998;1297,51330;0,24992
307,15201;20,47667;1297,14049;0,25062
307,85201;20,52334;1296,60461;0,25134
308,55201;20,56995;1297,32536;0,25206
309,25201;20,61662;1297,04336;0,25277
309,95201;20,66331;1296,65788;0,25348
310,65201;20,70998;1296,92424;0,25420
311,35201;20,75667;1296,81770;0,25492
312,05201;20,80337;1296,95553;0,25564
312,75201;20,85001;1296,91800;0,25636
313,45201;20,89667;1296,66105;0,25707
314,15201;20,94337;1298,12751;0,25779
314,85201;20,98998;1297,09654;0,25849
315,55201;21,03667;1296,44480;0,25921
316,25202;21,08328;1296,86780;0,25992
316,95202;21,12995;1296,26933;0,26065
317,65202;21,17664;1296,40410;0,26137
318,35202;21,22331;1296,74878;0,26209
319,05202;21,26997;1297,04336;0,26283
319,75202;21,31667;1296,85840;0,26355
320,45202;21,36339;1296,08763;0,26427
321,15202;21,41003;1296,09704;0,26498
321,85202;21,45670;1296,29755;0,26571
322,55202;21,50334;1296,00931;0,26641
323,25202;21,55000;1295,96228;0,26710
323,95202;21,59667;1296,82086;0,26781
324,65202;21,64334;1297,03702;0,26852
325,35202;21,69000;1296,54510;0,26925
326,05202;21,73670;1296,53886;0,27000
326,75202;21,78331;1296,54510;0,27074
327,45202;21,83006;1295,80563;0,27145
328,15202;21,87667;1295,73671;0,27217
328,85202;21,92337;1295,62700;0,27290
329,55202;21,97000;1296,88354;0,27362
330,25202;22,01664;1296,44172;0,27434
330,95202;22,06331;1296,33518;0,27507
331,65202;22,11003;1296,17853;0,27578
332,35202;22,15667;1296,39786;0,27650
333,05202;22,20334;1296,73937;0,27722
333,75202;22,25003;1296,33825;0,27795
334,45202;22,29670;1296,12833;0,27867
335,15202;22,34337;1296,73621;0,27938
335,85202;22,39006;1295,89643;0,28011
336,55202;22,43667;1297,02454;0,28082
337,25202;22,48322;1296,33825;0,28154
337,95202;22,53003;1296,51381;0,28227
338,65202;22,57661;1296,39152;0,28297
339,35202;22,62334;1296,28815;0,28367
340,05202;22,67003;1295,26351;0,28438
340,75202;22,71664;1296,29439;0,28512
341,45202;22,76334;1295,77117;0,28584
342,15202;22,81006;1295,41708;0,28657
342,85202;22,85667;1296,14715;0,28728
343,55202;22,90334;1296,19418;0,28800
344,25202;22,94995;1296,06258;0,28871
344,95202;22,99664;1295,14448;0,28940
345,65202;23,04331;1296,00298;0,29010
346,35202;23,08997;1296,40410;0,29080
347,05202;23,13667;1296,77700;0,29151
347,75202;23,18331;1296,01238;0,29222
348,45202;23,23003;1296,25052;0,29295
349,15202;23,27664;1296,13774;0,29368
349,85202;23,32331;1295,72731;0,29437
350,55202;23,37000;1296,63600;0,29508
351,25202;23,41661;1296,29131;0,29577
351,95202;23,46331;1296,21923;0,29645
352,65202;23,50997;1296,15655;0,29716
353,35202;23,55667;1296,65164;0,29790
354,05202;23,60333;1296,99633;0,29861
354,75202;23,65003;1295,89960;0,29932
355,45202;23,69670;1296,27250;0,30006
356,15202;23,74336;1296,26933;0,30078
356,85202;23,78997;1296,01872;0,30148
357,55202;23,83667;1295,58314;0,30221
358,25202;23,88325;1296,42598;0,30294
358,95202;23,93000;1295,75543;0,30368
359,65202;23,97664;1295,94663;0,30440
360,35202;24,02336;1296,46054;0,30507
361,05202;24,07000;1297,11535;0,30575
361,75202;24,11670;1295,87455;0,30647
362,45202;24,16333;1296,72373;0,30719
363,15202;24,21006;1296,45420;0,30789
363,85202;24,25672;1295,90901;0,30859
364,55202;24,30336;1297,46636;0,30930
365,25202;24,34997;1297,46320;0,31000
365,95202;24,39670;1297,09970;0,31073
366,65202;24,44331;1297,56350;0,31141
367,35202;24,49000;1297,15921;0,31211
368,05202;24,53669;1297,64182;0,31280
368,75202;24,58333;1298,87005;0,31324
369,45202;24,63000;1300,51197;0,31290
370,15202;24,67669;1301,43948;0,31270
370,85202;24,72331;1302,48293;0,31262
371,55202;24,76997;1302,46105;0,31257
372,25202;24,81664;1301,05093;0,31280
372,95202;24,86330;1300,41484;0,31299
373,65202;24,90997;1301,43641;0,31293
374,35202;24,95669;1301,37997;0,31294
375,05202;25,00336;1301,06974;0,31296
375,75202;25,05000;1300,53079;0,31298
376,45202;25,09669;1301,70584;0,31295
377,15202;25,14336;1301,22639;0,31292
377,85202;25,18997;1301,24521;0,31296
378,55202;25,23666;1302,13825;0,31289
379,25202;25,28322;1301,27342;0,31287
379,95202;25,32997;1301,82495;0,31289
380,65202;25,37664;1301,11361;0,31291
381,35202;25,42328;1300,33968;0,31296
382,05202;25,47000;1301,60246;0,31293
382,75202;25,51666;1302,37639;0,31294
383,45202;25,56330;1302,24479;0,31291
384,15202;25,61003;1302,11320;0,31293
384,85202;25,65669;1301,18253;0,31293
385,55202;25,70330;1302,58948;0,31288
386,25202;25,74997;1302,55502;0,31288
386,95202;25,79661;1302,43907;0,31286
387,65202;25,84333;1302,50491;0,31293
388,35202;25,88997;1302,68345;0,31291
389,05202;25,93667;1302,89653;0,31288
389,75202;25,98327;1303,59530;0,31291
390,45202;26,03003;1303,28201;0,31286
391,15202;26,07667;1304,08723;0,31287
391,85202;26,12336;1303,15032;0,31287
392,55202;26,17000;1304,75154;0,31289
393,25202;26,21661;1302,80880;0,31290
393,95202;26,26330;1303,70501;0,31286
394,65202;26,31000;1303,80839;0,31289
395,35202;26,35667;1304,51964;0,31285
396,05202;26,40339;1304,38181;0,31285
396,75202;26,45003;1304,97711;0,31285
397,45202;26,49669;1304,96463;0,31281
398,15202;26,54339;1304,36923;0,31286
398,85202;26,59000;1304,96770;0,31285
399,55202;26,63664;1304,94898;0,31288
400,25202;26,68330;1304,01514;0,31319
400,95202;26,72997;1304,27210;0,31304
401,65202;26,77664;1305,65707;0,31310
402,35202;26,82336;1305,74796;0,31306
403,05202;26,87000;1305,50042;0,31317
403,75202;26,91667;1302,45788;0,31386
404,45202;26,96339;1301,34234;0,03855
405,15202;27,01003;1301,72465;0,03922
405,85202;27,05669;1301,46770;0,04155
406,55202;27,10336;1301,61187;0,04151
407,25202;27,14997;1302,27301;0,04201
407,95202;27,19661;1301,97220;0,04161
408,65202;27,24336;1301,65257;0,04026
409,35202;27,28994;1303,05011;0,04050
410,05202;27,33666;1302,22598;0,01163
410,75202;27,38333;1302,33252;0,00291
411,45202;27,43000;1302,19469;0,00040
412,15202;27,47666;1303,09705;0,00118
412,85202;27,52336;1302,77434;0,00178
413,55202;27,56991;1302,58948;0,00178
414,25202;27,61661;1303,26003;0,00177
414,95202;27,66333;1303,36341;0,00177
415,65202;27,70997;1302,63017;0,00177
416,35202;27,75669;1303,17546;0,00177
417,05202;27,80333;1303,62976;0,00177
417,75202;27,85002;1303,67987;0,00177
418,45202;27,89666;1304,07158;0,00177
419,15202;27,94336;1304,27526;0,00176
419,85202;27,98997;1304,55103;0,00176
420,55202;28,03666;1304,42884;0,00176
421,25202;28,08324;1304,05901;0,00176
421,95202;28,12997;1303,88048;0,00176
422,65202;28,17663;1304,95206;0,00176
423,35202;28,22333;1304,75471;0,00176
424,05202;28,26997;1305,99234;0,00176
424,75202;28,31666;1305,52864;0,00175
425,45202;28,36336;1305,67281;0,00175
426,15202;28,41005;1305,43150;0,00175
426,85202;28,45669;1306,88539;0,00175
427,55202;28,50336;1306,13968;0,00175
428,25202;28,54997;1306,72557;0,00175
428,95202;28,59666;1306,50941;0,00175
429,65202;28,64330;1306,86350;0,00175
430,35202;28,69000;1306,99510;0,00175
431,05202;28,73669;1307,78160;0,00175
431,75202;28,78333;1307,20185;0,00174
432,45202;28,83003;1306,87915;0,00174
433,15202;28,87669;1307,78784;0,00174
433,85202;28,92333;1307,37731;0,00174
434,55202;28,97003;1308,56801;0,00174
435,25202;29,01661;1307,28958;0,00174
435,95202;29,06333;1308,92526;0,00174
436,65202;29,11003;1308,26095;0,00174
437,35202;29,15669;1308,83437;0,00174
438,05202;29,20333;1308,78109;0,00174
438,75202;29,25008;1308,93467;0,00174
439,45202;29,29666;1309,05062;0,00174
440,15202;29,34336;1309,38273;0,00173
440,85202;29,39002;1309,39530;0,00174
441,55202;29,43666;1311,41637;0,00173
442,25202;29,48324;1309,47046;0,00174
442,95202;29,53002;1309,46739;0,00173
443,65202;29,57660;1310,09715;0,00173
444,35202;29,62330;1309,89347;0,00173
445,05202;29,67002;1310,35093;0,00173
445,75202;29,71666;1310,59540;0,00173
446,45202;29,76333;1310,32905;0,00173
447,15202;29,81002;1310,43559;0,00173
447,85202;29,85666;1310,93375;0,00173
448,55202;29,90333;1312,03365;0,00173
449,25202;29,94999;1311,92710;0,00173
449,95202;29,99660;1310,28201;0,00173
450,65202;30,04333;1311,28160;0,00173
451,35202;30,08997;1311,22833;0,00173
452,05202;30,13666;1311,79858;0,00173
452,75202;30,18330;1311,04663;0,00173
453,45202;30,23002;1312,12138;0,00173
454,15202;30,27666;1312,15584;0,00173
454,85202;30,32336;1311,46330;0,00173
455,55202;30,36994;1312,40645;0,00173
456,25202;30,41663;1312,56627;0,00173
456,95202;30,46330;1312,24673;0,00172
457,65202;30,50999;1313,42169;0,00172
458,35202;30,55669;1313,85727;0,00172
459,05202;30,60336;1313,98262;0,00172
459,75202;30,65002;1313,71003;0,00172
460,45202;30,69669;1313,27761;0,00172
461,15202;30,74336;1312,93917;0,00172
461,85202;30,78997;1313,72251;0,00172
462,55202;30,83666;1314,89132;0,00172
463,25202;30,88327;1315,03856;0,00172
463,95202;30,92999;1314,59367;0,00172
464,65202;30,97663;1314,73774;0,00172
465,35202;31,02330;1316,22925;0,00172
466,05202;31,07005;1315,65277;0,00172
466,75202;31,11669;1315,46156;0,00172
467,45202;31,16339;1316,06003;0,00172
468,15202;31,21002;1315,90031;0,00172
468,85202;31,25672;1315,83763;0,00172
469,55202;31,30332;1316,72751;0,00172
470,25202;31,34999;1316,11647;0,00172
470,95202;31,39663;1317,19755;0,00172
471,65202;31,44335;1316,90297;0,00172
472,35202;31,48996;1316,98446;0,00171
473,05202;31,53671;1317,08784;0,00172
473,75202;31,58332;1317,10665;0,00171
474,45202;31,63002;1317,92445;0,00171
475,15202;31,67669;1316,99694;0,00171
475,85202;31,72332;1317,92128;0,00171
476,55202;31,76994;1318,30052;0,00172
477,25202;31,81666;1318,97731;0,00171
477,95202;31,86329;1318,31923;0,00171
478,65202;31,90999;1317,95891;0,00171
479,35202;31,95669;1319,49428;0,00171
480,05202;32,00332;1319,09326;0,00171
480,75202;32,05002;1319,29060;0,00171
481,45202;32,09668;1319,04939;0,00171
482,15202;32,14332;1320,27762;0,00171
482,85202;32,18996;1320,16484;0,00171
483,55202;32,23666;1320,50328;0,00171
484,25202;32,28324;1320,21811;0,00171
484,95202;32,32996;1320,92312;0,00171
485,65202;32,37663;1321,17383;0,00171
486,35202;32,42332;1320,98896;0,00171
487,05202;32,46996;1321,60624;0,00171
487,75202;32,51666;1322,22036;0,00171
488,45202;32,56333;1321,86944;0,00171
489,15202;32,61002;1321,87568;0,00171
489,85202;32,65669;1321,39632;0,00171
490,55202;32,70332;1323,10092;0,00171
491,25202;32,74996;1322,17649;0,00171
491,95202;32,79663;1322,40215;0,00171
492,65202;32,84332;1323,90615;0,00171
493,35202;32,88999;1323,57087;0,00171
494,05202;32,93669;1324,75533;0,00171
494,75202;32,98332;1324,14429;0,00171
495,45202;33,03002;1324,14429;0,00171
496,15202;33,07669;1325,39142;0,00171
496,85202;33,12332;1324,15369;0,00171
497,55202;33,16999;1325,33815;0,00171
498,25202;33,21663;1325,02168;0,00171
498,95202;33,26332;1325,81126;0,00171
499,65202;33,30999;1325,28171;0,00171
500,35202;33,35671;1325,21903;0,00171
501,05202;33,40338;1326,48814;0,00171
501,75202;33,45004;1325,96483;0,00171
502,45202;33,49669;1326,78263;0,00170
503,15202;33,54341;1326,14654;0,00170
503,85202;33,58999;1326,49122;0,00170
504,55202;33,63666;1328,05165;0,00171
505,25202;33,68329;1326,74510;0,00170
505,95202;33,73002;1327,67567;0,00170
506,65202;33,77660;1327,54408;0,00171
507,35202;33,82335;1327,85114;0,00170
508,05202;33,86999;1328,54367;0,00170
508,75202;33,91668;1328,28979;0,00170
509,45202;33,96341;1328,13007;0,00170
510,15202;34,01002;1327,27148;0,00170
510,85202;34,05671;1328,13631;0,00170
511,55202;34,10338;1328,48099;0,00170
512,25202;34,14993;1328,84756;0,00170
512,95202;34,19663;1328,20522;0,00170
513,65202;34,24338;1329,45543;0,00170
514,35202;34,28996;1329,18600;0,00170
515,05202;34,33668;1329,28938;0,00170
515,75202;34,38332;1329,98815;0,00170
516,45202;34,42999;1329,59336;0,00170
517,15202;34,47666;1329,63089;0,00170
517,85202;34,52335;1329,69357;0,00170
518,55202;34,56996;1331,02844;0,00170
519,25202;34,61663;1330,27332;0,00170
519,95202;34,66332;1330,55216;0,00170
520,65202;34,70996;1330,61484;0,00170
521,35202;34,75665;1330,84981;0,00170
522,05202;34,80335;1331,86504;0,00170
522,75202;34,84999;1330,59286;0,00170
523,45202;34,89668;1331,73345;0,00170
524,15202;34,94338;1331,18201;0,00170
524,85202;34,98996;1330,99714;0,00170
525,55202;35,03665;1331,48590;0,00170
526,25202;35,08326;1331,99980;0,00170
526,95203;35,12996;1331,66770;0,00170
527,65203;35,17663;1331,34490;0,00170
528,35203;35,22332;1332,42281;0,00170
529,05203;35,26999;1332,66412;0,00170
529,75203;35,31665;1331,75543;0,00170
530,45203;35,36338;1332,07189;0,00170
531,15203;35,41004;1331,78048;0,00170
531,85203;35,45671;1331,56739;0,00170
532,55203;35,50332;1332,76125;0,00170
533,25203;35,54999;1333,06831;0,00170
533,95203;35,59665;1332,13764;0,00170
534,65203;35,64335;1333,05574;0,00170
535,35203;35,68999;1333,42547;0,00170
536,05203;35,73668;1333,26575;0,00170
536,75203;35,78332;1334,08979;0,00170
537,45203;35,83007;1332,58579;0,00170
538,15203;35,87666;1333,55083;0,00170
538,85203;35,92335;1333,25318;0,00170
539,55203;35,97001;1334,03027;0,00170
540,25203;36,01666;1333,87363;0,00170
540,95203;36,06332;1334,88253;0,00170
541,65203;36,11004;1334,23703;0,00170
542,35203;36,15668;1334,60993;0,00170
543,05203;36,20335;1335,31494;0,00170
543,75203;36,25004;1335,07056;0,00170
544,45203;36,29671;1334,56923;0,00170
545,15203;36,34335;1334,81054;0,00170
545,85203;36,39004;1334,50339;0,00170
546,55203;36,43665;1336,20175;0,00170
547,25203;36,48326;1335,09878;0,00169
547,95203;36,53001;1335,18968;0,00169
548,65203;36,57659;1335,52803;0,00169
549,35203;36,62329;1336,16095;0,00169
550,05203;36,67001;1336,57772;0,00170
550,75203;36,71665;1336,13907;0,00170
551,45203;36,76335;1336,96944;0,00169
552,15203;36,81001;1336,11709;0,00170
552,85203;36,85665;1337,01954;0,00170
553,55203;36,90332;1337,41433;0,00169
554,25203;36,94996;1337,77782;0,00169
554,95203;36,99659;1336,95379;0,00169
555,65203;37,04332;1338,19776;0,00170
556,35203;37,08999;1337,74336;0,00169
557,05203;37,13665;1339,08764;0,00169
557,75203;37,18332;1337,90635;0,00169
558,45203;37,23001;1339,85532;0,00169
559,15203;37,27665;1338,99357;0,00169
559,85203;37,32335;1338,76801;0,00169
560,55203;37,36999;1339,18161;0,00169
561,25203;37,41660;1338,59571;0,00169
561,95203;37,46332;1339,28191;0,00169
562,65203;37,50999;1339,05001;0,00169
563,35203;37,55668;1339,94622;0,00169
564,05203;37,60335;1339,93048;0,00169
564,75203;37,65001;1339,74878;0,00169
565,45203;37,69668;1339,66729;0,00169
566,15203;37,74337;1339,88038;0,00169
566,85203;37,78996;1340,37230;0,00169
567,55203;37,83668;1340,43181;0,00169
568,25203;37,88323;1340,78283;0,00169
568,95203;37,93001;1341,49725;0,00169
569,65203;37,97662;1340,85175;0,00169
570,35203;38,02334;1341,23405;0,00169
571,05203;38,07001;1342,29315;0,00169
571,75203;38,11668;1341,60062;0,00169
572,45203;38,16338;1341,34684;0,00169
573,15203;38,21004;1341,24653;0,00169
573,85203;38,25671;1341,66013;0,00169
574,55203;38,30334;1342,61902;0,00169
575,25203;38,34996;1342,23048;0,00169
575,95203;38,39671;1342,23048;0,00169
576,65203;38,44332;1342,85400;0,00169
577,35203;38,48996;1343,04827;0,00169
578,05203;38,53671;1343,37414;0,00169
578,75203;38,58332;1343,71882;0,00169
579,45203;38,63001;1344,30481;0,00169
580,15203;38,67668;1344,50840;0,00169
580,85203;38,72332;1344,40502;0,00169
581,55203;38,76998;1344,24213;0,00169
582,25203;38,81665;1344,40502;0,00169
582,95203;38,86332;1344,36740;0,00169
583,65203;38,90998;1345,11320;0,00169
584,35203;38,95668;1344,87506;0,00169
585,05203;39,00335;1345,43907;0,00169
585,75203;39,04998;1345,68661;0,00169
586,45203;39,09671;1345,28242;0,00169
587,15203;39,14335;1345,59264;0,00169
587,85203;39,18995;1346,28825;0,00169
588,55203;39,23668;1346,36974;0,00169
589,25203;39,28320;1345,79632;0,00169
589,95203;39,32995;1346,26003;0,00169
590,65203;39,37662;1347,27526;0,00169
591,35203;39,42329;1345,68345;0,00169
592,05203;39,47001;1346,76453;0,00169
592,75203;39,51665;1346,93999;0,00169
593,45203;39,56334;1347,39745;0,00169
594,15203;39,61001;1347,38497;0,00169
594,85203;39,65671;1347,90512;0,00169
595,55203;39,70332;1348,44715;0,00169
596,25203;39,74995;1349,18662;0,00169
596,95203;39,79665;1348,67588;0,00169
597,65203;39,84329;1348,41269;0,00169
598,35203;39,88998;1348,84827;0,00169
599,05203;39,93668;1349,13968;0,00169
599,75203;39,98329;1349,18978;0,00169
600,45203;40,03001;1349,15533;0,00169
601,15203;40,07668;1349,69736;0,00169
601,85203;40,12334;1349,77885;0,00169
602,55203;40,16998;1350,54346;0,00169
603,25203;40,21662;1349,59714;0,00169
603,95203;40,26331;1349,86658;0,00169
604,65203;40,31001;1349,47179;0,00169
605,35203;40,35668;1349,89480;0,00169
606,05203;40,40340;1350,31464;0,00169
606,75203;40,45004;1350,33978;0,00169
607,45203;40,49671;1350,93825;0,00169
608,15203;40,54337;1349,96371;0,00169
608,85203;40,59001;1351,27977;0,00169
609,55203;40,63665;1352,04429;0,00169
610,25203;40,68329;1351,59316;0,00169
610,95203;40,72998;1350,99776;0,00169
611,65203;40,77665;1351,28917;0,00169
612,35203;40,82334;1351,77486;0,00169
613,05203;40,87001;1352,40471;0,00169
613,75203;40,91668;1352,59898;0,00169
614,45203;40,96340;1351,17946;0,00168
615,15203;41,01001;1352,46739;0,00169
615,85203;41,05670;1352,40471;0,00169
616,55203;41,10334;1352,99060;0,00169
617,25203;41,14998;1352,76811;0,00169
617,95203;41,19662;1352,41095;0,00168
618,65203;41,24337;1352,82455;0,00168
619,35203;41,28995;1352,65850;0,00168
620,05203;41,33668;1352,66790;0,00168
620,75203;41,38331;1353,27261;0,00168
621,45203;41,43001;1353,32281;0,00168
622,15203;41,47665;1353,51075;0,00169
622,85203;41,52337;1352,09449;0,00168
623,55203;41,56995;1353,19745;0,00168
624,25203;41,61659;1353,58600;0,00168
624,95203;41,66331;1353,01882;0,00168
625,65203;41,70995;1352,88723;0,00168
626,35203;41,75667;1353,59848;0,00168
627,05203;41,80334;1354,68263;0,00168
627,75203;41,84998;1353,89622;0,00168
628,45203;41,89671;1353,53273;0,00168
629,15203;41,94334;1354,32230;0,00168
629,85203;41,98995;1355,24981;0,00168
630,55203;42,03667;1354,81115;0,00168
631,25203;42,08323;1354,72342;0,00168
631,95203;42,12998;1355,17148;0,00168
632,65203;42,17662;1353,99960;0,00168
633,35203;42,22331;1354,94592;0,00168
634,05203;42,27001;1354,92394;0,00168
634,75203;42,31668;1354,43201;0,00168
635,45203;42,36334;1354,94592;0,00168
636,15203;42,41006;1355,13702;0,00168
636,85203;42,45671;1354,06852;0,00168
637,55203;42,50331;1355,40962;0,00168
638,25203;42,54998;1355,09940;0,00168
638,95203;42,59668;1355,45973;0,00168
639,65203;42,64334;1355,69787;0,00168
640,35203;42,69001;1355,18713;0,00168
641,05203;42,73664;1355,23099;0,00168
641,75203;42,78334;1356,04888;0,00168
642,45203;42,83004;1354,69204;0,00168
643,15203;42,87668;1355,15900;0,00168
643,85203;42,92334;1355,72609;0,00168
644,55203;42,97001;1356,29950;0,00168
645,25203;43,01662;1355,88273;0,00168
645,95203;43,06331;1356,70686;0,00168
646,65203;43,10998;1355,76688;0,00168
647,35203;43,15670;1355,79500;0,00168
648,05203;43,20331;1355,77936;0,00168
648,75203;43,25009;1355,19970;0,00168
649,45203;43,29670;1356,10215;0,00168
650,15203;43,34334;1356,95441;0,00168
650,85203;43,39004;1356,17414;0,00168
651,55203;43,43665;1357,16125;0,00168
652,25203;43,48325;1355,92353;0,00168
652,95203;43,53001;1356,08641;0,00168
653,65203;43,57659;1356,64418;0,00168
654,35203;43,62334;1356,55962;0,00168
655,05203;43,67001;1356,61289;0,00168
655,75203;43,71665;1355,66033;0,00168
656,45203;43,76334;1357,13611;0,00168
657,15203;43,81001;1356,91995;0,00168
657,85203;43,85667;1357,22701;0,00168
658,55203;43,90334;1356,96065;0,00168
659,25203;43,94995;1356,71310;0,00168
659,95203;43,99662;1356,51259;0,00168
660,65203;44,04331;1357,14244;0,00168
661,35203;44,08992;1356,41545;0,00168
662,05203;44,13670;1357,11106;0,00168
662,75203;44,18331;1357,41811;0,00168
663,45203;44,23001;1356,75389;0,00168
664,15203;44,27667;1356,81024;0,00168
664,85203;44,32331;1358,04173;0,00168
665,55203;44,36995;1357,81607;0,00168
666,25203;44,41662;1358,17649;0,00168
666,95203;44,46328;1357,93518;0,00168
667,65203;44,51004;1358,31749;0,00168
668,35203;44,55667;1357,78161;0,00168
669,05203;44,60334;1358,11064;0,00168
669,75203;44,65003;1357,63120;0,00168
670,45203;44,69667;1358,26105;0,00168
671,15203;44,74337;1358,34254;0,00168
671,85203;44,79001;1358,72476;0,00168
672,55203;44,83664;1358,67149;0,00168
673,25203;44,88328;1358,98488;0,00168
673,95203;44,92998;1358,33938;0,00168
674,65203;44,97667;1359,13529;0,00168
675,35203;45,02334;1360,00635;0,00168
676,05203;45,07001;1358,87833;0,00168
676,75203;45,11670;1358,58692;0,00168
677,45203;45,16340;1358,58692;0,00168
678,15203;45,21000;1358,96923;0,00168
678,85203;45,25673;1358,64336;0,00168
679,55203;45,30334;1358,78120;0,00168
680,25203;45,35000;1359,14469;0,00168
680,95203;45,39667;1359,05379;0,00168
681,65203;45,44334;1359,58334;0,00168
682,35203;45,48995;1359,38590;0,00168
683,05203;45,53673;1359,86852;0,00168
683,75203;45,58328;1359,29193;0,00168
684,45203;45,63003;1359,29510;0,00168
685,15203;45,67670;1359,30758;0,00168
685,85203;45,72331;1360,23508;0,00168
686,55203;45,76998;1360,15052;0,00168
687,25203;45,81665;1359,36718;0,00168
687,95203;45,86328;1359,70246;0,00168
688,65203;45,90997;1360,43876;0,00167
689,35203;45,95667;1360,15993;0,00168
690,05203;46,00337;1361,77363;0,00168
690,75203;46,05001;1361,04356;0,00168
691,45203;46,09667;1360,83672;0,00168
692,15203;46,14334;1360,92762;0,00167
692,85203;46,18995;1360,96207;0,00167
693,55203;46,23667;1360,75839;0,00168
694,25203;46,28322;1360,57669;0,00167
694,95203;46,32998;1360,90880;0,00167
695,65203;46,37664;1360,46382;0,00167
696,35203;46,42331;1361,15318;0,00167
697,05203;46,46995;1362,05880;0,00167
697,75203;46,51667;1361,13130;0,00167
698,45203;46,56334;1361,73917;0,00168
699,15203;46,61003;1360,89623;0,00167
699,85203;46,65670;1361,07486;0,00167
700,55203;46,70331;1361,84879;0,00167
701,25203;46,74998;1361,48846;0,00167
701,95203;46,79664;1362,01493;0,00167
702,65203;46,84328;1361,49162;0,00167
703,35203;46,88998;1361,98979;0,00167
704,05203;46,93667;1362,55072;0,00167
704,75203;46,98334;1362,73243;0,00167
705,45203;47,03000;1362,38150;0,00167
706,15203;47,07667;1362,64469;0,00167
706,85203;47,12336;1362,01177;0,00167
707,55203;47,16998;1363,13662;0,00167
708,25203;47,21658;1362,06187;0,00167
708,95203;47,26333;1363,94193;0,00167
709,65203;47,31000;1363,30584;0,00167
710,35203;47,35670;1363,72577;0,00167
711,05203;47,40336;1363,68815;0,00167
711,75203;47,45006;1363,47823;0,00167
712,45203;47,49667;1363,84796;0,00167
713,15203;47,54340;1363,25890;0,00167
713,85203;47,59000;1363,66934;0,00167
714,55203;47,63667;1364,02659;0,00167
715,25203;47,68328;1363,19306;0,00167
715,95203;47,73003;1364,35246;0,00167
716,65203;47,77661;1364,05164;0,00167
717,35203;47,82333;1364,53416;0,00167
718,05203;47,87000;1364,18324;0,00167
718,75203;47,91667;1364,20205;0,00167
719,45203;47,96339;1364,37751;0,00167
720,15203;48,01003;1364,06412;0,00167
720,85203;48,05670;1364,13313;0,00167
721,55203;48,10339;1364,40257;0,00167
722,25203;48,14994;1364,83815;0,00167
722,95203;48,19661;1364,03283;0,00167
723,65203;48,24336;1364,81933;0,00167
724,35203;48,28994;1364,46208;0,00167
725,05203;48,33664;1365,74991;0,00167
725,75203;48,38331;1364,71279;0,00167
726,45203;48,43003;1365,74050;0,00167
727,15203;48,47667;1365,32066;0,00167
727,85203;48,52336;1365,11698;0,00167
728,55203;48,56992;1365,44285;0,00167
729,25203;48,61664;1365,88784;0,00167
729,95203;48,66333;1365,26739;0,00167
730,65203;48,70997;1365,42404;0,00167
731,35203;48,75667;1366,11024;0,00167
732,05203;48,80336;1365,61524;0,00167
732,75203;48,85003;1365,52118;0,00167
733,45203;48,89667;1365,45850;0,00167
734,15203;48,94334;1366,14479;0,00167
734,85203;48,98997;1365,96924;0,00167
735,55203;49,03664;1367,06280;0,00167
736,25203;49,08325;1365,46483;0,00167
736,95204;49,12997;1364,98855;0,00167
737,65204;49,17661;1365,72486;0,00166
738,35204;49,22331;1365,68723;0,00166
739,05204;49,27000;1366,00686;0,00166
739,75204;49,31664;1365,75624;0,00166
740,45204;49,36336;1365,84705;0,00166
741,15204;49,41003;1366,39224;0,00166
741,85204;49,45669;1365,69664;0,00166
742,55204;49,50333;1366,77455;0,00166
743,25204;49,54994;1366,15103;0,00166
743,95204;49,59661;1366,24193;0,00166
744,65204;49,64336;1366,64612;0,00166
745,35204;49,68997;1366,71504;0,00166
746,05204;49,73672;1366,75891;0,00166
746,75204;49,78330;1367,19132;0,00166
747,45204;49,83003;1366,04449;0,00166
748,15204;49,87667;1366,88426;0,00166
748,85204;49,92333;1367,12864;0,00166
749,55204;49,96997;1367,64254;0,00166
750,25204;50,01667;1367,26648;0,00166
750,95204;50,06327;1367,18508;0,00166
751,65204;50,11003;1366,80277;0,00166
752,35204;50,15667;1367,53283;0,00166
753,05204;50,20333;1367,22894;0,00166
753,75204;50,25006;1367,62690;0,00166
754,45204;50,29672;1367,14429;0,00166
755,15204;50,34333;1368,06555;0,00166
755,85204;50,39002;1367,82425;0,00166
756,55204;50,43667;1368,39766;0,00166
757,25204;50,48325;1368,17833;0,00166
757,95204;50,53000;1368,37577;0,00166
758,65204;50,57660;1368,33498;0,00166
759,35204;50,62328;1369,10267;0,00166
760,05204;50,67002;1368,88335;0,00166
760,75204;50,71664;1368,80819;0,00166
761,45204;50,76333;1368,97108;0,00166
762,15204;50,81006;1368,20972;0,00166
762,85204;50,85664;1369,92680;0,00166
763,55204;50,90330;1369,94561;0,00166
764,25204;50,95000;1369,59152;0,00165
764,95204;50,99658;1369,55706;0,00166
765,65204;51,04328;1369,37220;0,00166
766,35204;51,09000;1369,89858;0,00166
767,05204;51,13664;1370,48764;0,00166
767,75204;51,18330;1369,64163;0,00166
768,45204;51,23002;1370,20880;0,00165
769,15204;51,27664;1369,84847;0,00165
769,85204;51,32330;1370,52210;0,00165
770,55204;51,36997;1370,71954;0,00165
771,25204;51,41658;1370,16494;0,00165
771,95204;51,46333;1371,10185;0,00165
772,65204;51,51000;1370,67568;0,00165
773,35204;51,55666;1370,83549;0,00165
774,05204;51,60336;1370,57230;0,00165
774,75204;51,65002;1370,87312;0,00165
775,45204;51,69670;1370,93263;0,00165
776,15204;51,74336;1370,53467;0,00165
776,85204;51,79000;1371,62199;0,00165
777,55204;51,83670;1371,81934;0,00165
778,25204;51,88324;1371,66586;0,00165
778,95204;51,93000;1372,26749;0,00165
779,65204;51,97661;1371,74102;0,00165
780,35204;52,02333;1371,94786;0,00165
781,05204;52,07003;1371,95103;0,00165
781,75204;52,11669;1372,04183;0,00165
782,45204;52,16336;1371,70032;0,00165
783,15204;52,21005;1371,42772;0,00165
783,85204;52,25669;1371,65021;0,00165
784,55204;52,30336;1372,43662;0,00165
785,25204;52,34997;1372,84398;0,00165
785,95204;52,39669;1372,86903;0,00165
786,65204;52,44333;1372,29878;0,00165
787,35204;52,48997;1372,54950;0,00165
788,05204;52,53672;1372,79388;0,00165
788,75204;52,58333;1373,19500;0,00165
789,45204;52,62997;1372,79704;0,00165
790,15204;52,67672;1372,07629;0,00165
790,85204;52,72330;1373,49572;0,00165
791,55204;52,76994;1373,11034;0,00165
792,25204;52,81663;1374,00655;0,00165
792,95204;52,86327;1373,06331;0,00165
793,65204;52,91003;1372,96617;0,00165
794,35204;52,95672;1372,65287;0,00165
795,05204;53,00330;1373,88119;0,00165
795,75204;53,05003;1373,23886;0,00165
796,45204;53,09669;1373,20124;0,00165
797,15204;53,14333;1374,02844;0,00165
797,85204;53,18997;1373,22005;0,00165
798,55204;53,23664;1373,98457;0,00165
799,25204;53,28327;1373,42373;0,00164
799,95204;53,32997;1373,70881;0,00165
800,65204;53,37661;1373,16678;0,00164
801,35204;53,42330;1374,11933;0,00165
802,05204;53,46999;1374,67077;0,00165
802,75204;53,51663;1373,83416;0,00164
803,45204;53,56336;1374,32301;0,00165
804,15204;53,60999;1374,77107;0,00164
804,85204;53,65672;1373,52087;0,00165
805,55204;53,70330;1374,68018;0,00164
806,25204;53,74997;1374,34183;0,00164
806,95204;53,79663;1374,57363;0,00165
807,65204;53,84333;1374,73345;0,00164
808,35204;53,88994;1374,24469;0,00164
809,05204;53,93672;1374,46402;0,00164
809,75204;53,98330;1374,75226;0,00164
810,45204;54,03005;1374,34807;0,00164
811,15204;54,07666;1375,64214;0,00164
811,85204;54,12333;1375,25992;0,00164
812,55204;54,16999;1375,71739;0,00164
813,25204;54,21663;1375,73304;0,00164
813,95204;54,26330;1375,16586;0,00164
814,65204;54,31002;1375,04367;0,00164
815,35204;54,35666;1375,78314;0,00164
816,05204;54,40341;1375,70798;0,00164
816,75204;54,45002;1375,17210;0,00164
817,45204;54,49666;1376,32210;0,00164
818,15204;54,54341;1375,31944;0,00164
818,85204;54,58999;1376,03693;0,00164
819,55204;54,63663;1377,08038;0,00164
820,25204;54,68330;1377,21831;0,00164
820,95204;54,72994;1375,87404;0,00164
821,65204;54,77663;1377,09919;0,00164
822,35204;54,82336;1376,67619;0,00164
823,05204;54,86997;1377,03344;0,00164
823,75204;54,91672;1377,13682;0,00164
824,45204;54,96341;1376,80462;0,00164
825,15204;55,00999;1377,15247;0,00164
825,85204;55,05672;1377,39060;0,00164
826,55204;55,10336;1377,10543;0,00164
827,25204;55,14994;1377,33733;0,00164
827,95204;55,19666;1377,30604;0,00164
828,65204;55,24336;1377,97026;0,00164
829,35204;55,28991;1378,02986;0,00164
830,05204;55,33669;1378,24602;0,00164
830,75204;55,38330;1377,80737;0,00164
831,45204;55,42996;1378,17087;0,00164
832,15204;55,47666;1378,37455;0,00164
832,85204;55,52330;1378,40584;0,00164
833,55204;55,56996;1378,56882;0,00164
834,25204;55,61660;1378,89152;0,00164
834,95204;55,66330;1378,68160;0,00164
835,65204;55,70996;1379,11709;0,00164
836,35204;55,75666;1379,28631;0,00164
837,05204;55,80333;1379,76576;0,00164
837,75204;55,85002;1379,97884;0,00164
838,45204;55,89666;1379,21739;0,00164
839,15204;55,94333;1379,33958;0,00164
839,85204;55,98996;1379,57772;0,00164
840,55204;56,03663;1380,48958;0,00164
841,25204;56,08324;1379,72189;0,00164
841,95204;56,12996;1380,04776;0,00164
842,65204;56,17660;1380,42374;0,00164
843,35204;56,22333;1380,76842;0,00164
844,05204;56,27000;1379,74378;0,00164
844,75204;56,31666;1380,15430;0,00164
845,45204;56,36338;1380,19500;0,00164
846,15204;56,41002;1379,51197;0,00164
846,85204;56,45666;1380,50206;0,00164
847,55204;56,50335;1380,79347;0,00164
848,25204;56,54996;1380,85308;0,00164
848,95204;56,59666;1380,71831;0,00163
849,65204;56,64335;1380,29531;0,00164
850,35204;56,68999;1380,22006;0,00164
851,05204;56,73669;1380,34234;0,00164
851,75204;56,78333;1379,78457;0,00164
852,45204;56,83002;1380,40809;0,00164
853,15204;56,87672;1380,40809;0,00164
853,85204;56,92333;1380,65247;0,00163
854,55204;56,96999;1380,36739;0,00163
855,25204;57,01663;1380,83734;0,00163
855,95204;57,06330;1381,09121;0,00164
856,65204;57,11002;1380,89061;0,00164
857,35204;57,15671;1380,36422;0,00163
858,05204;57,20329;1381,14132;0,00163
858,75204;57,25011;1380,45512;0,00163
859,45204;57,29669;1381,05359;0,00163
860,15204;57,34333;1380,26392;0,00163
860,85204;57,39002;1380,98150;0,00163
861,55204;57,43666;1380,93447;0,00163
862,25204;57,48324;1380,57731;0,00163
862,95204;57,53002;1380,80288;0,00163
863,65204;57,57657;1380,54285;0,00163
864,35204;57,62333;1380,53345;0,00163
865,05204;57,67002;1380,91883;0,00163
865,75204;57,71663;1380,05717;0,00163
866,45204;57,76335;1380,01330;0,00163
867,15204;57,81005;1380,55850;0,00163
867,85204;57,85666;1380,78416;0,00163
868,55204;57,90333;1380,67445;0,00163
869,25204;57,94996;1380,94388;0,00163
869,95204;57,99660;1381,11310;0,00163
870,65204;58,04333;1381,16013;0,00163
871,35204;58,08993;1380,76842;0,00163
872,05204;58,13668;1381,16013;0,00163
872,75204;58,18329;1380,42066;0,00163
873,45204;58,23002;1380,51463;0,00163
874,15204;58,27666;1381,36381;0,00163
874,85204;58,32333;1380,26085;0,00163
875,55204;58,36999;1381,21964;0,00163
876,25204;58,41660;1381,19459;0,00163
876,95204;58,46327;1380,58048;0,00163
877,65204;58,51002;1380,60553;0,00163
878,35204;58,55666;1380,92516;0,00163
879,05204;58,60335;1381,14449;0,00163
879,75204;58,65002;1381,27608;0,00163
880,45204;58,69669;1381,33876;0,00163
881,15204;58,74338;1380,10420;0,00163
881,85204;58,78999;1380,68702;0,00163
882,55204;58,83663;1381,57057;0,00163
883,25204;58,88327;1380,18876;0,00163
883,95204;58,92999;1381,10686;0,00163
884,65204;58,97666;1380,45819;0,00163
885,35204;59,02332;1381,05676;0,00163
886,05204;59,06999;1381,36381;0,00163
886,75204;59,11671;1379,96944;0,00163
887,45204;59,16338;1380,72148;0,00163
888,15204;59,20999;1380,58048;0,00163
888,85204;59,25671;1380,55226;0,00163
889,55204;59,30332;1380,94388;0,00163
890,25204;59,35002;1380,59920;0,00163
890,95204;59,39666;1381,09429;0,00163
891,65204;59,44332;1380,52087;0,00163
892,35204;59,48996;1380,37363;0,00163
893,05204;59,53671;1380,84674;0,00163
893,75204;59,58330;1379,86913;0,00163
894,45204;59,63002;1381,28232;0,00163
895,15204;59,67666;1381,04418;0,00163
895,85204;59,72335;1379,91300;0,00163
896,55204;59,76996;1380,58988;0,00163
897,25204;59,81666;1380,60236;0,00163
897,95204;59,86326;1379,60594;0,00163
898,65204;59,90999;1379,95379;0,00163
899,35204;59,95668;1380,32660;0,00163
900,05204;60,00335;1379,68427;0,00163
900,75204;60,04999;1379,39602;0,00163
901,45204;60,09671;1379,61535;0,00163
902,15204;60,14335;1379,19858;0,00163
902,85204;60,18996;1378,57189;0,00163
903,55204;60,23666;1378,39960;0,00163
904,25204;60,28324;1377,14623;0,00162
904,95204;60,32996;1377,82926;0,00163
905,65204;60,37660;1377,22772;0,00163
906,35204;60,42332;1376,28447;0,00163
907,05204;60,46996;1376,76075;0,00163
907,75204;60,51668;1375,21913;0,00163
908,45204;60,56332;1374,75543;0,00163
909,15204;60,61002;1373,84040;0,00163
909,26404;60,61742;801,62054;0,00162