File: 02_Appendices/Appendix_C_Experimental_Data/C_1_Materials_Tests/C_1_1_Tensile_tests/C_1_1_2_Quanton Iron/Specimen_RawData_9.csv
Text Inputs : Specimen label;"1"
Dimension : Length;50,00000;mm
Dimension : Final length;100,00000;mm
Test : Rate 1;4,00000;mm/min
General : Unique Identifier;"{8C04EC63-1443-4F43-8EE8-A9AF71F487A0}"

Time;Extension;Load;Strain 1
(sec);(mm);(N);(mm/mm)
0,00000;0,00000;10,82239;0,00018
0,30000;0,01712;15,56326;0,00022
0,60000;0,03892;34,13820;0,00040
0,90000;0,05972;47,61820;0,00056
1,20000;0,07994;56,71140;0,00066
1,50000;0,10006;58,94240;0,00071
1,80000;0,12003;60,28664;0,00073
2,10000;0,14003;61,49301;0,00074
2,40000;0,16000;60,67519;0,00075
2,70000;0,17997;61,54628;0,00076
3,00000;0,20000;62,42051;0,00078
3,30000;0,21997;63,61434;0,00079
3,60000;0,24000;63,91201;0,00080
3,90000;0,25997;62,98765;0,00081
4,20000;0,27994;62,82158;0,00081
4,50000;0,30006;63,60807;0,00082
4,80000;0,32003;64,08435;0,00083
5,10000;0,34003;65,25312;0,00084
5,40000;0,36003;65,05258;0,00086
5,70000;0,37997;65,86413;0,00087
6,00000;0,40006;67,00784;0,00089
6,30000;0,41997;68,10453;0,00091
6,60000;0,43997;71,21603;0,00095
6,90000;0,45997;74,61893;0,00100
7,20000;0,47994;83,56799;0,00110
7,50000;0,50006;95,14287;0,00123
7,80000;0,52000;106,24772;0,00136
8,10000;0,54006;118,00121;0,00150
8,40000;0,56000;129,08101;0,00164
8,70000;0,57997;141,07575;0,00179
9,00000;0,60000;152,59422;0,00193
9,30000;0,61997;164,26623;0,00207
9,60000;0,64000;175,85991;0,00222
9,90000;0,65997;186,43523;0,00236
10,20000;0,68003;197,39280;0,00250
10,50000;0,70003;208,28459;0,00264
10,80000;0,71997;219,08239;0,00279
11,10000;0,74003;229,87390;0,00293
11,40000;0,76000;239,21151;0,00308
11,70000;0,78000;250,82084;0,00322
12,00000;0,80003;259,96419;0,00335
12,30000;0,81997;270,56143;0,00350
12,60000;0,83997;280,89234;0,00364
12,90000;0,85994;290,40228;0,00378
13,20000;0,88000;300,51072;0,00391
13,50000;0,90003;310,18986;0,00405
13,80000;0,92003;320,65550;0,00419
14,10000;0,94003;329,44477;0,00433
14,40000;0,96003;339,13332;0,00446
14,70000;0,97997;348,84068;0,00460
15,00000;1,00000;358,34748;0,00474
15,30000;1,01997;367,95456;0,00487
15,60000;1,03997;377,34858;0,00501
15,90000;1,05997;386,16604;0,00515
16,20000;1,07997;395,50364;0,00528
16,50000;1,10006;405,40211;0,00542
16,80000;1,12003;414,19766;0,00556
17,10000;1,14003;423,51647;0,00569
17,40000;1,16006;431,93283;0,00583
17,70000;1,17997;441,46157;0,00596
18,00000;1,19997;450,70834;0,00609
18,30000;1,21997;459,32839;0,00623
18,60000;1,24000;468,11136;0,00636
18,90000;1,26000;475,98565;0,00649
19,20000;1,27997;484,59945;0,00662
19,50000;1,30003;492,84664;0,00675
19,80000;1,32000;502,05579;0,00689
20,10000;1,34003;511,06438;0,00702
20,40000;1,36003;518,11771;0,00715
20,70000;1,38000;526,32103;0,00728
21,00000;1,40003;534,23918;0,00741
21,30000;1,41994;543,29792;0,00753
21,60000;1,44000;550,28857;0,00766
21,90000;1,45997;558,36029;0,00779
22,20000;1,47997;566,21893;0,00792
22,50000;1,50006;574,55068;0,00804
22,80000;1,52003;582,57543;0,00817
23,10000;1,54006;589,70395;0,00829
23,40000;1,56000;597,35263;0,00842
23,70000;1,57994;605,30840;0,00854
24,00000;1,60000;612,48397;0,00867
24,30000;1,61997;619,80989;0,00879
24,60000;1,64003;627,46801;0,00892
24,90000;1,65997;634,13591;0,00905
25,20000;1,67997;641,95697;0,00917
25,50000;1,70003;649,68397;0,00929
25,80000;1,72000;656,31117;0,00942
26,10000;1,74005;664,59910;0,00954
26,40000;1,76000;670,87845;0,00966
26,70000;1,77997;678,66817;0,00979
27,00000;1,80000;685,50846;0,00991
27,30000;1,81997;692,02594;0,01003
27,60000;1,83997;700,26061;0,01015
27,90000;1,85997;705,68458;0,01027
28,20000;1,88000;712,38382;0,01039
28,50000;1,90000;719,60012;0,01052
28,80000;1,92000;726,82579;0,01064
29,10000;1,94003;733,70677;0,01076
29,40000;1,96005;739,87651;0,01088
29,70000;1,97997;746,94236;0,01100
30,00000;2,00000;754,74773;0,01113
30,30000;2,01997;760,92375;0,01126
30,60000;2,03997;768,01782;0,01138
30,90000;2,05997;773,98699;0,01150
31,20000;2,08000;780,24757;0,01162
31,50000;2,10008;787,93699;0,01175
31,80000;2,12003;793,85918;0,01186
32,10000;2,14003;799,68730;0,01198
32,40000;2,16000;805,93219;0,01211
32,70000;2,17997;813,22687;0,01223
33,00000;2,20003;818,66644;0,01234
33,30000;2,21997;824,67636;0,01246
33,60000;2,24003;831,28475;0,01258
33,90000;2,25997;837,71767;0,01269
34,20000;2,27991;842,57768;0,01281
34,50000;2,30005;849,22360;0,01293
34,80000;2,32003;855,16144;0,01305
35,10000;2,34003;861,41583;0,01316
35,40000;2,36003;866,66113;0,01328
35,70000;2,37997;872,72748;0,01340
36,00000;2,40003;878,52739;0,01351
36,30000;2,41994;884,06736;0,01363
36,60000;2,43997;889,69814;0,01374
36,90000;2,45997;895,13771;0,01386
37,20000;2,47997;901,27606;0,01398
37,50000;2,50005;906,96327;0,01410
37,80000;2,52003;912,33086;0,01422
38,10000;2,54005;918,38771;0,01433
38,40000;2,56000;924,70786;0,01445
38,70000;2,57997;929,60540;0,01457
39,00000;2,60003;935,39283;0,01468
39,30000;2,61997;941,04866;0,01480
39,60000;2,63997;946,43813;0,01492
39,90000;2,65997;951,64906;0,01504
40,20000;2,68003;957,19518;0,01516
40,50000;2,70005;963,85377;0,01527
40,80000;2,72003;968,16216;0,01539
41,10000;2,74003;974,35387;0,01551
41,40000;2,76000;978,81583;0,01563
41,70000;2,77997;984,56573;0,01575
42,00000;2,80000;990,77616;0,01587
42,30000;2,82000;996,34733;0,01599
42,60000;2,84000;1002,36041;0,01611
42,90000;2,85997;1007,43659;0,01623
43,20000;2,87997;1012,80725;0,01635
43,50000;2,90003;1019,42820;0,01647
43,80000;2,92003;1023,89641;0,01659
44,10000;2,94005;1029,16686;0,01671
44,40000;2,96005;1033,51604;0,01684
44,70000;2,97997;1039,61993;0,01696
45,00000;3,00000;1044,01307;0,01708
45,30000;3,01994;1049,37116;0,01720
45,60000;3,03997;1055,73209;0,01733
45,90000;3,06000;1060,52309;0,01745
46,20000;3,08000;1066,44835;0,01758
46,50000;3,10008;1071,00746;0,01770
46,80000;3,12002;1076,99232;0,01783
47,10000;3,14000;1082,24396;0,01795
47,40000;3,16002;1086,94099;0,01808
47,70000;3,18000;1091,61604;0,01820
48,00000;3,20000;1096,86768;0,01832
48,30000;3,21997;1101,52075;0,01845
48,60000;3,24000;1107,72811;0,01858
48,90000;3,26000;1112,36246;0,01870
49,20000;3,27997;1118,01205;0,01883
49,50000;3,30005;1122,69018;0,01895
49,80000;3,32002;1127,82279;0,01908
50,10000;3,34002;1133,74498;0,01921
50,40000;3,36002;1137,82780;0,01934
50,70000;3,38000;1143,39273;0,01947
51,00000;3,40002;1148,10541;0,01960
51,30000;3,41994;1152,68333;0,01973
51,60000;3,44000;1158,58363;0,01987
51,90000;3,45997;1163,18660;0,01999
52,20000;3,47994;1167,74887;0,02012
52,50000;3,50005;1172,30797;0,02026
52,80000;3,52000;1178,21768;0,02039
53,10000;3,54008;1182,98670;0,02052
53,40000;3,56000;1187,29519;0,02065
53,70000;3,57994;1191,57862;0,02078
54,00000;3,60000;1196,17218;0,02091
54,30000;3,61997;1201,95961;0,02104
54,60000;3,64000;1206,87280;0,02118
54,90000;3,66000;1210,68936;0,02131
55,20000;3,68000;1215,82504;0,02144
55,50000;3,70002;1220,44999;0,02158
55,80000;3,72000;1224,75531;0,02171
56,10000;3,74005;1229,57453;0,02185
56,40000;3,76000;1234,68516;0,02198
56,70000;3,77997;1238,67709;0,02211
57,00000;3,80000;1242,34008;0,02225
57,30000;3,82000;1248,06175;0,02239
57,60000;3,83997;1252,79315;0,02252
57,90000;3,85997;1256,80082;0,02265
58,20000;3,88000;1261,10930;0,02279
58,50000;3,90002;1265,21410;0,02293
58,80000;3,92002;1270,07719;0,02307
59,10000;3,94005;1274,46083;0,02321
59,40000;3,96002;1278,70664;0,02335
59,70000;3,97997;1282,86472;0,02348
60,00000;4,00000;1287,30787;0,02362
60,30000;4,01997;1291,46278;0,02376
60,60000;4,03997;1295,63650;0,02390
60,90000;4,05997;1299,20552;0,02404
61,20000;4,07997;1304,15000;0,02418
61,50000;4,10008;1307,86002;0,02432
61,80000;4,12002;1311,79560;0,02446
62,10000;4,14000;1316,84355;0,02460
62,40000;4,16002;1321,38077;0,02475
62,70000;4,17997;1324,57055;0,02489
63,00000;4,20002;1327,85123;0,02503
63,30000;4,21997;1332,23496;0,02517
63,60000;4,24000;1335,74121;0,02532
63,90000;4,25997;1340,93016;0,02546
64,20000;4,27994;1343,86932;0,02561
64,50000;4,30005;1347,33804;0,02575
64,80000;4,32002;1351,85961;0,02590
65,10000;4,34002;1356,16800;0,02604
65,40000;4,36002;1359,25757;0,02619
65,70000;4,37997;1362,95194;0,02634
66,00000;4,40005;1366,40808;0,02648
66,30000;4,41997;1370,40634;0,02663
66,60000;4,43997;1374,33251;0,02678
66,90000;4,45997;1377,40951;0,02693
67,20000;4,47997;1380,58998;0,02708
67,50000;4,50005;1384,15266;0,02723
67,80000;4,52002;1388,31381;0,02738
68,10000;4,54005;1391,49111;0,02753
68,40000;4,55999;1394,75930;0,02768
68,70000;4,57997;1397,67649;0,02783
69,00000;4,60002;1402,47382;0,02798
69,30000;4,61997;1404,54816;0,02813
69,60000;4,63999;1408,29887;0,02828
69,90000;4,65997;1411,42914;0,02844
70,20000;4,67999;1414,42465;0,02859
70,50000;4,70005;1417,33875;0,02874
70,80000;4,71999;1420,86074;0,02890
71,10000;4,74005;1424,16647;0,02905
71,40000;4,75999;1427,27802;0,02921
71,70000;4,77999;1429,79100;0,02936
72,00000;4,80002;1433,38814;0,02952
72,30000;4,81999;1436,35236;0,02968
72,60000;4,83999;1438,94376;0,02983
72,90000;4,85997;1442,60358;0,02999
73,20000;4,87999;1444,72178;0,03015
73,50000;4,90005;1447,46350;0,03031
73,80000;4,91999;1450,24285;0,03047
74,10000;4,94002;1453,76483;0,03063
74,40000;4,96005;1455,90184;0,03078
74,70000;4,97997;1458,57781;0,03094
75,00000;4,99999;1461,23180;0,03110
75,30000;5,01997;1462,81421;0,03126
75,60000;5,03997;1466,65266;0,03143
75,90000;5,05997;1468,26636;0,03159
76,20000;5,07999;1471,11146;0,03175
76,50000;5,10008;1474,16340;0,03192
76,80000;5,12002;1476,11247;0,03208
77,10000;5,13999;1478,59724;0,03224
77,40000;5,16002;1480,59633;0,03240
77,70000;5,17997;1483,26913;0,03257
78,00000;5,19999;1484,81084;0,03273
78,30000;5,21997;1486,88518;0,03290
78,60000;5,23999;1489,68957;0,03306
78,90000;5,25999;1492,34980;0,03323
79,20000;5,27997;1494,16411;0,03340
79,50000;5,30002;1495,66187;0,03356
79,80000;5,31999;1497,68293;0,03373
80,10000;5,33999;1501,47751;0,03390
80,40000;5,36002;1501,90992;0,03407
80,70000;5,37999;1504,10328;0,03424
81,00000;5,40002;1505,09346;0,03441
81,30000;5,41994;1507,48743;0,03458
81,60000;5,43999;1509,99418;0,03475
81,90000;5,45997;1510,88405;0,03492
82,20000;5,47997;1512,72025;0,03509
82,50000;5,50005;1513,91095;0,03526
82,80000;5,52002;1516,58691;0,03543
83,10000;5,54008;1517,17598;0,03561
83,40000;5,55999;1518,96207;0,03578
83,70000;5,57997;1520,22792;0,03595
84,00000;5,59999;1523,07618;0,03613
84,30000;5,61997;1523,78753;0,03630
84,60000;5,64002;1526,12813;0,03648
84,90000;5,65999;1526,14070;0,03665
85,20000;5,67999;1527,80451;0,03683
85,50000;5,70002;1529,09243;0,03700
85,80000;5,71999;1531,21687;0,03718
86,10000;5,74005;1531,76524;0,03736
86,40000;5,76002;1533,03109;0,03753
86,70000;5,77996;1534,40041;0,03771
87,00000;5,79999;1535,08037;0,03789
87,30000;5,82002;1537,69050;0,03807
87,60000;5,83999;1538,00072;0,03825
87,90000;5,85996;1538,95644;0,03843
88,20000;5,87999;1540,27250;0,03861
88,50000;5,90002;1541,29704;0,03879
88,80000;5,92002;1541,82352;0,03897
89,10000;5,94005;1543,28058;0,03916
89,40000;5,96005;1543,65972;0,03934
89,70000;5,97996;1544,58405;0,03952
90,00000;5,99996;1545,26709;0,03970
90,30000;6,01996;1546,87772;0,03988
90,60000;6,03996;1548,17812;0,04007
90,90000;6,05996;1547,85849;0,04025
91,20000;6,07996;1548,88621;0,04043
91,50000;6,10008;1548,63559;0,04062
91,80000;6,12002;1549,09929;0,04080
92,10000;6,13999;1550,56892;0,04099
92,40000;6,15999;1551,06084;0,04117
92,70000;6,17996;1551,34602;0,04136
93,00000;6,20002;1551,14541;0,04154
93,30000;6,21996;1552,58058;0,04173
93,60000;6,23999;1553,14142;0,04192
93,90000;6,25996;1552,72465;0,04210
94,20000;6,27994;1553,97803;0,04229
94,50000;6,30005;1553,46729;0,04248
94,80000;6,32002;1553,80573;0,04267
95,10000;6,34002;1554,74264;0,04286
95,40000;6,36002;1554,54203;0,04304
95,70000;6,37996;1555,31606;0,04323
96,00000;6,40005;1555,08099;0,04342
96,30000;6,41996;1554,84919;0,04361
96,60000;6,43996;1555,25021;0,04380
96,90000;6,45996;1556,41902;0,04399
97,20000;6,47994;1555,75471;0,04418
97,50000;6,50005;1555,71708;0,04437
97,80000;6,52002;1555,72342;0,04456
98,10000;6,54008;1556,08058;0,04476
98,40000;6,55999;1556,08682;0,04495
98,70000;6,57996;1556,10563;0,04514
99,00000;6,60002;1556,08682;0,04533
99,30000;6,61996;1555,91452;0,04552
99,60000;6,63996;1556,57567;0,04572
99,90000;6,65996;1556,22475;0,04591
100,20000;6,68002;1555,19387;0,04611
100,50000;6,70005;1554,76453;0,04630
100,80000;6,71999;1555,73273;0,04649
101,10000;6,74002;1555,65757;0,04669
101,40000;6,75999;1555,11238;0,04688
101,70000;6,77996;1555,17505;0,04707
102,00000;6,80002;1554,67363;0,04727
102,30000;6,81999;1555,38181;0,04746
102,60000;6,83996;1554,56401;0,04766
102,90000;6,85994;1554,10022;0,04786
103,20000;6,87999;1553,55195;0,04805
103,50000;6,90002;1552,67455;0,04825
103,80000;6,92002;1552,75604;0,04844
104,10000;6,94002;1552,69960;0,04864
104,40000;6,96005;1551,60921;0,04884
104,70000;6,97999;1551,63109;0,04904
105,00000;6,99999;1551,60921;0,04923
105,30001;7,01996;1550,32445;0,04943
105,60001;7,03996;1550,40277;0,04962
105,90001;7,05999;1549,74163;0,04982
106,20001;7,07999;1548,75778;0,05002
106,50001;7,10008;1549,31555;0,05022
106,80001;7,12002;1548,03395;0,05042
107,09601;7,13974;1547,67046;0,05061
107,30601;7,15361;1547,98692;0,05075
107,60601;7,17355;1546,32619;0,05095
107,90601;7,19352;1545,97843;0,05115
108,20601;7,21361;1544,49940;0,05135
108,50601;7,23364;1544,65921;0,05155
108,80601;7,25367;1543,87280;0,05175
109,10601;7,27358;1543,86023;0,05195
109,40601;7,29358;1542,45961;0,05215
109,70601;7,31361;1542,53161;0,05235
110,00601;7,33358;1542,21831;0,05255
110,30601;7,35361;1541,53835;0,05275
110,60601;7,37358;1539,52353;0,05295
110,90601;7,39358;1539,78048;0,05315
111,20601;7,41358;1538,71514;0,05335
111,50601;7,43364;1537,71555;0,05355
111,80601;7,45364;1536,84765;0,05375
112,10601;7,47361;1535,78855;0,05395
112,40601;7,49358;1535,84182;0,05415
112,70601;7,51361;1534,53518;0,05435
113,00601;7,53364;1534,22495;0,05455
113,30601;7,55358;1533,36637;0,05475
113,60601;7,57352;1532,38876;0,05495
113,90601;7,59358;1531,61790;0,05516
114,20601;7,61358;1530,62465;0,05536
114,50601;7,63364;1529,10808;0,05556
114,80601;7,65364;1528,38426;0,05576
115,10601;7,67364;1527,58211;0,05596
115,40601;7,69361;1526,69847;0,05616
115,70601;7,71361;1526,51044;0,05636
116,00601;7,73361;1525,65818;0,05656
116,30601;7,75358;1524,46749;0,05676
116,60601;7,77355;1522,91954;0,05697
116,90601;7,79355;1521,65052;0,05717
117,20601;7,81361;1521,62854;0,05737
117,50601;7,83364;1520,15584;0,05757
117,80601;7,85361;1519,34428;0,05778
118,10601;7,87361;1518,23191;0,05798
118,40601;7,89358;1517,63344;0,05818
118,70601;7,91361;1516,52424;0,05838
119,00601;7,93361;1516,08866;0,05858
119,30601;7,95361;1514,97005;0,05879
119,60601;7,97358;1513,13385;0,05899
119,90601;7,99352;1512,50400;0,05919
120,20601;8,01361;1511,72066;0,05939
120,50601;8,03364;1510,75246;0,05960
120,80601;8,05361;1509,90952;0,05980
121,10601;8,07361;1508,78783;0,06000
121,40601;8,09358;1507,94489;0,06021
121,70601;8,11364;1507,04561;0,06041
122,00601;8,13361;1506,26227;0,06061
122,30601;8,15358;1504,41984;0,06081
122,60601;8,17355;1503,11319;0,06101
122,90601;8,19355;1503,15389;0,06122
123,20601;8,21361;1501,85348;0,06142
123,50601;8,23364;1499,90143;0,06163
123,80601;8,25367;1499,97342;0,06183
124,10601;8,27358;1498,97700;0,06203
124,40601;8,29358;1497,71115;0,06223
124,70601;8,31361;1497,25368;0,06244
125,00601;8,33361;1496,66145;0,06264
125,30601;8,35361;1494,56831;0,06285
125,60601;8,37355;1493,84765;0,06305
125,90601;8,39361;1492,54100;0,06326
126,20601;8,41358;1492,06780;0,06346
126,50601;8,43361;1490,71729;0,06366
126,80601;8,45364;1489,99039;0,06387
127,10601;8,47358;1488,65553;0,06407
127,40601;8,49361;1487,07312;0,06427
127,70601;8,51361;1486,26473;0,06447
128,00601;8,53361;1485,99837;0,06468
128,30601;8,55358;1484,97690;0,06488
128,60601;8,57355;1482,94959;0,06508
128,90601;8,59358;1482,19755;0,06529
129,20601;8,61358;1481,74949;0,06549
129,50601;8,63361;1480,49295;0,06570
129,80601;8,65364;1479,18323;0,06590
130,10601;8,67364;1478,17740;0,06610
130,40601;8,69361;1477,36268;0,06631
130,70601;8,71358;1476,16882;0,06651
131,00601;8,73361;1475,36350;0,06671
131,30601;8,75358;1473,22025;0,06691
131,60601;8,77358;1473,04479;0,06711
131,90601;8,79358;1472,40562;0,06732
132,20601;8,81361;1470,66023;0,06752
132,50601;8,83364;1469,73273;0,06773
132,80601;8,85361;1468,94315;0,06793
133,10601;8,87364;1467,93732;0,06813
133,40601;8,89358;1466,82812;0,06833
133,70601;8,91358;1465,74397;0,06854
134,00601;8,93361;1465,61544;0,06874
134,30601;8,95361;1464,06442;0,06894
134,60601;8,97358;1463,01780;0,06915
134,90601;8,99352;1461,77700;0,06935
135,20601;9,01358;1461,15655;0,06955
135,50601;9,03364;1460,49857;0,06975
135,80601;9,05364;1458,66554;0,06996
136,10601;9,07364;1456,92956;0,07016
136,40601;9,09361;1456,72280;0,07036
136,70601;9,11361;1456,11800;0,07056
137,00601;9,13358;1454,54817;0,07076
137,30601;9,15361;1454,14080;0,07097
137,60601;9,17355;1452,61800;0,07117
137,90601;9,19352;1451,83150;0,07137
138,20601;9,21361;1451,31135;0,07158
138,50601;9,23364;1449,63497;0,07178
138,80601;9,25367;1449,27781;0,07198
139,10601;9,27358;1448,15287;0,07219
139,40601;9,29358;1446,85563;0,07239
139,70601;9,31361;1446,96217;0,07259
140,00601;9,33358;1445,18241;0,07279
140,30601;9,35361;1444,27996;0,07300
140,60601;9,37358;1442,96074;0,07320
140,90601;9,39358;1442,18057;0,07340
141,20601;9,41358;1441,44418;0,07360
141,50601;9,43364;1440,60757;0,07381
141,80601;9,45364;1439,23517;0,07401
142,10601;9,47361;1438,29826;0,07421
142,40601;9,49358;1437,85020;0,07441
142,70601;9,51361;1437,21411;0,07462
143,00601;9,53364;1435,52516;0,07482
143,30601;9,55358;1435,43119;0,07502
143,60601;9,57355;1434,26554;0,07522
143,90601;9,59355;1433,21892;0,07542
144,20601;9,61358;1432,42618;0,07563
144,50601;9,63363;1431,16033;0,07583
144,80601;9,65364;1430,43334;0,07603
145,10601;9,67364;1429,10480;0,07623
145,40601;9,69361;1428,10838;0,07643
145,70601;9,71361;1428,67239;0,07664
146,00601;9,73361;1427,07741;0,07684
146,30601;9,75358;1426,27219;0,07704
146,60601;9,77355;1424,73988;0,07724
146,90601;9,79355;1425,03446;0,07744
147,20601;9,81361;1423,91892;0,07765
147,50601;9,83364;1422,50583;0,07785
147,80601;9,85361;1421,63159;0,07805
148,10601;9,87361;1421,57199;0,07825
148,40601;9,89358;1420,82945;0,07845
148,70601;9,91361;1419,71707;0,07865
149,00601;9,93364;1418,55767;0,07885
149,30601;9,95361;1417,45470;0,07905
149,60601;9,97358;1416,89694;0,07925
149,90601;9,99352;1416,02587;0,07945
150,20601;10,01361;1414,32127;0,07965
150,50601;10,03364;1413,29356;0,07985
150,80601;10,05364;1412,94571;0,08006
151,10601;10,07361;1412,66054;0,08025
151,40601;10,09361;1410,87454;0,08045
151,70601;10,11364;1410,50788;0,08066
152,00601;10,13361;1409,99397;0,08085
152,30601;10,15358;1408,76574;0,08105
152,60601;10,17355;1407,58445;0,08126
152,90601;10,19355;1406,94520;0,08145
153,20601;10,21361;1407,13630;0,08165
153,50601;10,23364;1404,96176;0,08185
153,80601;10,25366;1403,96534;0,08205
154,10601;10,27358;1403,90573;0,08226
154,40601;10,29358;1403,16319;0,08245
154,70601;10,31361;1402,84980;0,08265
155,00601;10,33358;1401,67167;0,08286
155,30601;10,35361;1400,36810;0,08305
155,60601;10,37355;1399,82915;0,08325
155,90601;10,39363;1399,08027;0,08345
156,20601;10,41358;1398,53824;0,08365
156,50601;10,43361;1397,23467;0,08385
156,80601;10,45364;1396,16309;0,08405
157,10601;10,47358;1395,87484;0,08425
157,40601;10,49363;1396,12546;0,08445
157,70601;10,51361;1394,65900;0,08465
158,00601;10,53363;1394,15143;0,08485
158,30601;10,55358;1393,41820;0,08505
158,60601;10,57355;1391,74499;0,08525
158,90601;10,59358;1391,80757;0,08545
159,20601;10,61358;1390,89581;0,08565
159,50601;10,63363;1390,25655;0,08585
159,80601;10,65363;1388,45798;0,08605
160,10601;10,67363;1388,27311;0,08625
160,40601;10,69363;1389,17556;0,08645
160,70601;10,71358;1386,91003;0,08665
161,00601;10,73361;1386,33978;0,08685
161,30601;10,75358;1385,46247;0,08705
161,60601;10,77358;1384,78251;0,08725
161,90601;10,79358;1384,22782;0,08744
162,20601;10,81361;1382,62352;0,08764
162,50601;10,83363;1382,12219;0,08785
162,80601;10,85361;1382,84601;0,08805
163,10601;10,87363;1381,24796;0,08824
163,40601;10,89361;1381,42658;0,08844
163,70601;10,91361;1380,50849;0,08864
164,00601;10,93361;1379,43681;0,08884
164,30601;10,95361;1378,94489;0,08904
164,60601;10,97358;1377,60378;0,08924
164,90601;10,99352;1376,18436;0,08943
165,20601;11,01358;1377,14008;0,08963
165,50601;11,03363;1376,07781;0,08983
165,80601;11,05363;1374,15705;0,09003
166,10601;11,07363;1374,78374;0,09023
166,40601;11,09361;1374,21973;0,09043
166,70601;11,11361;1373,22638;0,09063
167,00601;11,13358;1372,08896;0,09083
167,30601;11,15363;1372,50256;0,09103
167,60601;11,17358;1371,27740;0,09122
167,90601;11,19352;1369,94887;0,09142
168,20601;11,21358;1369,76400;0,09162
168,50601;11,23363;1369,00255;0,09182
168,80601;11,25369;1368,68609;0,09201
169,10601;11,27361;1368,48865;0,09221
169,40601;11,29358;1366,71830;0,09241
169,70601;11,31361;1366,28896;0,09260
170,00601;11,33358;1365,59028;0,09280
170,30601;11,35361;1365,62157;0,09300
170,60601;11,37358;1364,93538;0,09320
170,90601;11,39358;1363,77290;0,09339
171,20601;11,41358;1363,71022;0,09359
171,50601;11,43361;1362,61666;0,09379
171,80601;11,45363;1362,43170;0,09399
172,10601;11,47361;1361,59509;0,09419
172,40601;11,49361;1361,65470;0,09438
172,70601;11,51361;1360,85562;0,09458
173,00601;11,53366;1359,77147;0,09478
173,30601;11,55358;1359,09151;0,09497
173,60601;11,57355;1358,43353;0,09517
173,90601;11,59358;1358,01677;0,09536
174,20601;11,61358;1357,40889;0,09556
174,50601;11,63363;1356,78845;0,09576
174,80601;11,65366;1355,68231;0,09596
175,10601;11,67363;1356,93885;0,09616
175,40601;11,69363;1355,14652;0,09636
175,70601;11,71358;1354,37567;0,09655
176,00601;11,73360;1354,21902;0,09675
176,30601;11,75360;1354,20654;0,09694
176,60601;11,77355;1352,81840;0,09714
176,90601;11,79355;1351,21718;0,09734
177,20601;11,81361;1351,19846;0,09753
177,50601;11,83366;1350,49652;0,09773
177,80601;11,85360;1350,56544;0,09793
178,10601;11,87360;1349,71626;0,09813
178,40601;11,89358;1349,08650;0,09832
178,70601;11,91360;1348,61646;0,09852
179,00601;11,93360;1347,99918;0,09872
179,30601;11,95360;1347,54488;0,09891
179,60601;11,97358;1347,68272;0,09911
179,90601;11,99352;1346,92444;0,09930
180,20601;12,01360;1345,89979;0,09950
180,50601;12,03363;1345,42035;0,09970
180,80601;12,05363;1344,78426;0,09989
181,10601;12,07360;1344,72474;0,10009
181,40601;12,09360;1343,60297;0,10028
181,70601;12,11363;1343,31472;0,10048
182,00601;12,13358;1342,73507;0,10067
182,30601;12,15358;1341,80123;0,10087
182,60601;12,17355;1341,52863;0,10107
182,90601;12,19355;1340,80481;0,10126
183,20601;12,21360;1340,41943;0,10146
183,50601;12,23363;1339,72066;0,10165
183,80601;12,25366;1339,04703;0,10185
184,10601;12,27358;1338,51431;0,10205
184,40601;12,29358;1338,51115;0,10224
184,70601;12,31363;1337,30797;0,10244
185,00601;12,33358;1337,06983;0,10264
185,30601;12,35360;1337,04478;0,10283
185,60601;12,37355;1335,98875;0,10302
185,90601;12,39360;1335,58139;0,10322
186,20601;12,41360;1335,47802;0,10342
186,50601;12,43363;1334,69468;0,10361
186,80601;12,45363;1334,07107;0,10381
187,10601;12,47358;1334,16513;0,10400
187,40601;12,49360;1332,52945;0,10420
187,70601;12,51360;1332,19734;0,10439
188,00601;12,53363;1331,91533;0,10459
188,30601;12,55357;1331,37014;0,10478
188,60601;12,57355;1330,73712;0,10498
188,90601;12,59360;1330,82801;0,10517
189,20601;12,61360;1330,12617;0,10537
189,50601;12,63360;1329,87546;0,10556
189,80601;12,65363;1328,85398;0,10575
190,10601;12,67363;1328,21472;0,10595
190,40601;12,69363;1327,60685;0,10614
190,70601;12,71360;1327,39376;0,10634
191,00601;12,73360;1326,81094;0,10653
191,30601;12,75355;1325,75501;0,10673
191,60601;12,77357;1325,99315;0,10692
191,90601;12,79358;1325,68292;0,10712
192,20601;12,81360;1324,17260;0,10731
192,50601;12,83363;1324,02852;0,10750
192,80601;12,85360;1324,51104;0,10770
193,10601;12,87363;1323,78405;0,10789
193,40601;12,89360;1323,23261;0,10809
193,70601;12,91360;1322,93804;0,10828
194,00601;12,93360;1322,08578;0,10848
194,30601;12,95360;1321,89151;0,10867
194,60601;12,97357;1321,27106;0,10886
194,90601;12,99352;1320,56288;0,10905
195,20601;13,01358;1320,43445;0,10925
195,50601;13,03363;1319,88293;0,10945
195,80601;13,05363;1319,53200;0,10964
196,10601;13,07363;1318,98681;0,10983
196,40601;13,09360;1318,38201;0,11003
196,70601;13,11363;1317,90265;0,11022
197,00601;13,13357;1317,02842;0,11041
197,30601;13,15360;1317,49529;0,11061
197,60601;13,17355;1316,15736;0,11080
197,90601;13,19355;1316,01002;0,11099
198,20601;13,21360;1315,19223;0,11119
198,50601;13,23363;1315,88466;0,11139
198,80601;13,25366;1314,72535;0,11158
199,10601;13,27360;1314,12996;0,11177
199,40601;13,29357;1313,73201;0,11196
199,70601;13,31360;1314,17075;0,11216
200,00601;13,33360;1313,74141;0,11235
200,30601;13,35363;1313,24949;0,11255
200,60601;13,37358;1312,19039;0,11274
200,90601;13,39357;1312,24049;0,11293
201,20601;13,41357;1312,12147;0,11313
201,50601;13,43363;1311,84570;0,11332
201,80601;13,45366;1311,42894;0,11351
202,10601;13,47360;1310,20695;0,11371
202,40601;13,49357;1310,56104;0,11390
202,70601;13,51360;1309,89989;0,11409
203,00601;13,53363;1309,42045;0,11429
203,30601;13,55360;1309,21360;0,11448
203,60601;13,57355;1308,64652;0,11467
203,90601;13,59355;1308,42719;0,11486
204,20601;13,61357;1308,23292;0,11506
204,50601;13,63363;1307,20511;0,11525
204,80601;13,65366;1307,06094;0,11544
205,10601;13,67363;1305,95490;0,11563
205,40601;13,69360;1305,98936;0,11582
205,70601;13,71357;1305,82331;0,11601
206,00601;13,73363;1305,45041;0,11621
206,30601;13,75360;1304,15941;0,11640
206,60601;13,77355;1304,93343;0,11659
206,90601;13,79354;1304,74539;0,11678
207,20601;13,81360;1303,22566;0,11698
207,50601;13,83366;1303,14110;0,11717
207,80601;13,85363;1302,53946;0,11736
208,10601;13,87363;1302,31697;0,11755
208,40601;13,89357;1301,44898;0,11774
208,70601;13,91360;1301,94100;0,11793
209,00601;13,93360;1300,65940;0,11813
209,30601;13,95360;1301,12628;0,11832
209,60601;13,97357;1299,76319;0,11851
209,90601;13,99352;1299,99509;0,11870
210,20601;14,01360;1299,45930;0,11889
210,50601;14,03363;1299,53139;0,11908
210,80601;14,05363;1299,18670;0,11928
211,10601;14,07360;1298,85767;0,11947
211,40601;14,09360;1298,82637;0,11966
211,70601;14,11366;1297,65756;0,11985
212,00601;14,13357;1297,58865;0,12004
212,30601;14,15357;1297,14999;0,12023
212,60601;14,17355;1297,08732;0,12042
212,90601;14,19354;1296,39795;0,12061
213,20601;14,21363;1295,98435;0,12081
213,50601;14,23363;1296,42617;0,12100
213,80601;14,25366;1295,05061;0,12119
214,10601;14,27357;1295,21033;0,12138
214,40601;14,29360;1295,11319;0,12157
214,70601;14,31363;1294,62751;0,12176
215,00601;14,33357;1293,69069;0,12195
215,30601;14,35360;1292,98251;0,12214
215,60601;14,37354;1292,16779;0,12233
215,90601;14,39360;1293,36789;0,12253
216,20601;14,41360;1292,46544;0,12272
216,50601;14,43363;1292,42158;0,12291
216,80601;14,45363;1291,57249;0,12310
217,10601;14,47360;1291,79182;0,12329
217,40601;14,49360;1291,42208;0,12348
217,70601;14,51360;1290,93640;0,12367
218,00601;14,53363;1290,45695;0,12386
218,30601;14,55357;1289,84284;0,12405
218,60601;14,57355;1290,26584;0,12424
218,90601;14,59357;1289,58588;0,12443
219,20601;14,61360;1288,96544;0,12462
219,50601;14,63363;1288,72106;0,12481
219,80601;14,65363;1288,62076;0,12500
220,10601;14,67363;1287,52096;0,12519
220,40601;14,69363;1287,19192;0,12538
220,70601;14,71360;1287,70266;0,12557
221,00601;14,73360;1287,34550;0,12576
221,30601;14,75357;1286,56840;0,12595
221,60601;14,77357;1286,78149;0,12614
221,90601;14,79355;1286,42423;0,12633
222,20601;14,81360;1285,56881;0,12652
222,50601;14,83366;1285,57822;0,12672
222,80601;14,85360;1285,23977;0,12690
223,10601;14,87363;1285,44662;0,12709
223,40601;14,89360;1285,22730;0,12728
223,70601;14,91360;1283,82975;0,12747
224,00601;14,93357;1284,34049;0,12766
224,30601;14,95363;1283,25317;0,12785
224,60601;14,97357;1283,80153;0,12804
224,90601;14,99351;1283,09652;0,12823
225,20601;15,01357;1283,01820;0,12842
225,50601;15,03363;1282,58262;0,12860
225,80601;15,05363;1281,62699;0,12879
226,10601;15,07363;1281,53609;0,12898
226,40601;15,09363;1281,65828;0,12917
226,70601;15,11363;1280,98466;0,12936
227,00601;15,13357;1280,75900;0,12955
227,30601;15,15360;1280,70889;0,12974
227,60601;15,17357;1279,77822;0,12992
227,90601;15,19354;1279,80961;0,13011
228,20601;15,21360;1279,52760;0,13030
228,50601;15,23363;1278,59069;0,13049
228,80601;15,25366;1278,93221;0,13068
229,10601;15,27360;1278,69407;0,13087
229,40601;15,29357;1279,14846;0,13105
229,70601;15,31360;1278,14570;0,13124
230,00601;15,33357;1277,66002;0,13143
230,30601;15,35360;1277,78538;0,13162
230,60601;15,37357;1276,44427;0,13181
230,90601;15,39360;1277,24018;0,13199
231,20601;15,41357;1276,72004;0,13218
231,50601;15,43363;1275,82699;0,13237
231,80601;15,45366;1275,58568;0,13256
232,10601;15,47360;1276,06196;0,13275
232,40601;15,49360;1275,39774;0,13293
232,70601;15,51360;1274,97474;0,13312
233,00601;15,53366;1274,44202;0,13331
233,30601;15,55360;1274,58302;0,13350
233,60601;15,57351;1273,86237;0,13368
233,90601;15,59354;1274,25399;0,13387
234,20601;15,61357;1273,58036;0,13406
234,50601;15,63363;1273,94069;0,13424
234,80601;15,65366;1272,73742;0,13443
235,10601;15,67363;1273,14795;0,13462
235,40601;15,69360;1273,87485;0,13480
235,70601;15,71357;1272,09509;0,13499
236,00601;15,73363;1271,71278;0,13518
236,30601;15,75360;1271,88824;0,13537
236,60601;15,77357;1271,30542;0,13555
236,90601;15,79354;1271,11115;0,13574
237,20601;15,81360;1270,81349;0,13593
237,50601;15,83363;1270,55030;0,13612
237,80601;15,85363;1270,59733;0,13630
238,10601;15,87360;1270,79161;0,13649
238,40601;15,89357;1269,79202;0,13667
238,70601;15,91363;1269,78885;0,13686
239,00601;15,93360;1270,10532;0,13704
239,30601;15,95360;1269,20296;0,13723
239,60601;15,97357;1269,00552;0,13742
239,90601;15,99351;1268,55746;0,13760
240,20601;16,01363;1267,32597;0,13779
240,50601;16,03363;1268,20337;0,13797
240,80601;16,05360;1267,62995;0,13816
241,10601;16,07360;1267,46390;0,13834
241,40601;16,09360;1266,85603;0,13853
241,70601;16,11363;1266,53640;0,13871
242,00601;16,13360;1266,66799;0,13890
242,30601;16,15360;1266,77137;0,13909
242,60601;16,17354;1265,34570;0,13927
242,90601;16,19357;1266,30450;0,13945
243,20601;16,21363;1265,22975;0,13964
243,50601;16,23363;1265,36451;0,13982
243,80601;16,25366;1265,16707;0,14001
244,10601;16,27357;1264,43384;0,14019
244,40601;16,29357;1263,56278;0,14037
244,70601;16,31363;1263,73507;0,14056
245,00601;16,33360;1264,12995;0,14074
245,30601;16,35357;1263,20245;0,14092
245,60601;16,37354;1262,73865;0,14111
245,90601;16,39360;1263,50634;0,14129
246,20601;16,41357;1262,82955;0,14148
246,50601;16,43363;1262,24989;0,14166
246,80601;16,45363;1262,14642;0,14184
247,10601;16,47360;1261,89888;0,14203
247,40601;16,49363;1261,73915;0,14221
247,70601;16,51363;1261,34120;0,14239
248,00601;16,53360;1261,24090;0,14257
248,30601;16,55360;1260,52964;0,14276
248,60601;16,57354;1260,23190;0,14294
248,90601;16,59360;1260,42934;0,14313
249,20601;16,61360;1259,29508;0,14331
249,50601;16,63363;1259,75255;0,14349
249,80601;16,65363;1258,75296;0,14368
250,10601;16,67363;1258,37382;0,14386
250,40601;16,69363;1258,38947;0,14404
250,70601;16,71360;1258,27668;0,14422
251,00601;16,73360;1258,00092;0,14440
251,30601;16,75357;1258,15757;0,14459
251,60601;16,77357;1257,29591;0,14477
251,90601;16,79357;1256,91993;0,14495
252,20601;16,81363;1257,17688;0,14513
252,50601;16,83363;1255,98926;0,14531
252,80601;16,85360;1256,57208;0,14550
253,10601;16,87363;1256,22433;0,14568
253,40601;16,89357;1255,17771;0,14586
253,70601;16,91360;1256,29948;0,14604
254,00601;16,93363;1255,84519;0,14622
254,30601;16,95363;1255,57566;0,14640
254,60601;16,97357;1255,82637;0,14658
254,90601;16,99351;1255,13067;0,14677
255,20601;17,01357;1254,60429;0,14694
255,50601;17,03363;1253,92433;0,14713
255,80601;17,05365;1254,53221;0,14731
256,10601;17,07363;1253,67995;0,14749
256,40601;17,09363;1253,62352;0,14766
256,70601;17,11360;1253,55776;0,14784
257,00601;17,13357;1252,24171;0,14802
257,30601;17,15363;1253,45429;0,14820
257,60601;17,17357;1253,30081;0,14838
257,90601;17,19354;1252,18220;0,14856
258,20601;17,21360;1252,58639;0,14874
258,50601;17,23363;1251,98476;0,14892
258,80601;17,25365;1250,58098;0,14910
259,10601;17,27360;1251,45204;0,14928
259,40601;17,29360;1251,37372;0,14946
259,70601;17,31363;1251,26718;0,14964
260,00601;17,33360;1251,23588;0,14982
260,30601;17,35363;1250,82228;0,15000
260,60601;17,37357;1249,61901;0,15018
260,90601;17,39360;1249,79448;0,15036
261,20601;17,41357;1249,41850;0,15053
261,50601;17,43363;1248,97668;0,15071
261,80601;17,45366;1248,05858;0,15089
262,10601;17,47360;1248,20899;0,15106
262,40601;17,49357;1248,17137;0,15124
262,70601;17,51360;1248,13691;0,15142
263,00601;17,53365;1248,01472;0,15159
263,30601;17,55360;1247,93639;0,15177
263,60601;17,57354;1247,09662;0,15195
263,90601;17,59357;1246,03128;0,15212
264,20601;17,61357;1246,13466;0,15230
264,50601;17,63363;1246,25685;0,15248
264,80601;17,65366;1245,89652;0,15265
265,10601;17,67365;1245,34192;0,15282
265,40601;17,69360;1245,37637;0,15300
265,70601;17,71357;1245,03486;0,15317
266,00601;17,73360;1244,47392;0,15335
266,30601;17,75360;1243,81278;0,15352
266,60601;17,77354;1244,11043;0,15370
266,90601;17,79357;1243,97576;0,15387
267,20601;17,81363;1242,65030;0,15405
267,50601;17,83365;1243,49315;0,15422
267,80601;17,85363;1243,40858;0,15440
268,10601;17,87357;1243,09836;0,15457
268,40601;17,89357;1242,30878;0,15474
268,70601;17,91360;1241,95470;0,15492
269,00601;17,93363;1242,31810;0,15509
269,30601;17,95360;1241,73537;0,15526
269,60601;17,97357;1240,32842;0,15544
269,90601;17,99354;1241,26840;0,15561
270,20601;18,01360;1240,35971;0,15578
270,50601;18,03363;1240,35347;0,15596
270,80601;18,05362;1238,83067;0,15613
271,10601;18,07363;1239,60776;0,15630
271,40601;18,09360;1239,61717;0,15647
271,70601;18,11363;1239,35081;0,15664
272,00601;18,13360;1238,17893;0,15681
272,30601;18,15354;1238,22587;0,15698
272,60601;18,17354;1238,00030;0,15715
272,90601;18,19357;1236,75317;0,15732
273,20601;18,21363;1236,40541;0,15749
273,50601;18,23362;1237,16369;0,15767
273,80601;18,25365;1236,80960;0,15784
274,10601;18,27357;1236,22678;0,15801
274,40601;18,29360;1236,67484;0,15817
274,70601;18,31363;1235,60317;0,15834
275,00601;18,33360;1235,12382;0,15851
275,30601;18,35360;1235,88834;0,15868
275,60601;18,37354;1234,65061;0,15885
275,90601;18,39362;1234,77913;0,15902
276,20601;18,41357;1234,47515;0,15919
276,50601;18,43363;1234,16493;0,15935
276,80601;18,45365;1233,43486;0,15952
277,10601;18,47360;1233,20930;0,15969
277,40601;18,49360;1233,02443;0,15986
277,70601;18,51360;1232,36012;0,16002
278,00601;18,53360;1232,23793;0,16019
278,30601;18,55360;1231,26339;0,16036
278,60601;18,57354;1231,34172;0,16052
278,90601;18,59357;1231,05971;0,16069
279,20601;18,61357;1230,33281;0,16085
279,50601;18,63362;1230,42362;0,16101
279,80601;18,65363;1230,18241;0,16118
280,10601;18,67362;1228,78179;0,16134
280,40601;18,69363;1229,57453;0,16151
280,70601;18,71360;1228,41196;0,16167
281,00601;18,73357;1229,48680;0,16183
281,30601;18,75357;1228,87259;0,16199
281,60601;18,77357;1227,27146;0,16216
281,90601;18,79354;1226,74499;0,16232
282,20601;18,81362;1227,07402;0,16248
282,50601;18,83365;1226,41912;0,16264
282,80601;18,85360;1226,27504;0,16280
283,10601;18,87362;1225,29734;0,16296
283,40601;18,89363;1225,31932;0,16312
283,70601;18,91357;1224,99969;0,16329
284,00601;18,93357;1225,04048;0,16345
284,30601;18,95362;1224,67382;0,16361
284,60601;18,97360;1224,12238;0,16377
284,90601;18,99354;1222,81257;0,16393
285,20601;19,01360;1222,76247;0,16408
285,50601;19,03360;1222,06677;0,16424
285,80601;19,05362;1222,27985;0,16440
286,10601;19,07362;1221,03905;0,16456
286,40601;19,09362;1221,03281;0,16472
286,70601;19,11362;1221,44017;0,16488
287,00601;19,13357;1221,11421;0,16503
287,30601;19,15360;1220,50010;0,16519
287,60601;19,17354;1219,75439;0,16534
287,90601;19,19354;1219,17157;0,16550
288,20601;19,21360;1219,09315;0,16566
288,50601;19,23362;1217,95572;0,16581
288,80601;19,25368;1217,88997;0,16597
289,10601;19,27360;1217,21318;0,16612
289,40601;19,29357;1217,14417;0,16627
289,70601;19,31360;1215,97545;0,16643
290,00601;19,33357;1217,18179;0,16658
290,30601;19,35362;1215,48036;0,16673
290,60601;19,37357;1215,50858;0,16688
290,90601;19,39359;1214,96646;0,16703
291,20601;19,41357;1214,61553;0,16718
291,50601;19,43363;1214,43067;0,16733
291,80601;19,45365;1213,23057;0,16749
292,10601;19,47360;1212,43466;0,16763
292,40601;19,49360;1211,93957;0,16778
292,70601;19,51360;1212,20592;0,16793
293,00601;19,53365;1212,08997;0,16808
293,30601;19,55360;1210,41359;0,16823
293,60601;19,57354;1210,44805;0,16837
293,90601;19,59357;1209,92484;0,16852
294,20601;19,61357;1209,90286;0,16867
294,50601;19,63362;1207,66247;0,16881
294,80601;19,65365;1207,64682;0,16895
295,10601;19,67362;1207,20807;0,16910
295,40601;19,69362;1206,49682;0,16924
295,70601;19,71360;1206,42474;0,16939
296,00601;19,73362;1206,67545;0,16953
296,30601;19,75357;1205,38129;0,16967
296,60601;19,77354;1204,73895;0,16981
296,90601;19,79354;1204,27525;0,16995
297,20601;19,81362;1203,20357;0,17009
297,50601;19,83365;1202,38578;0,17022
297,80601;19,85362;1202,20715;0,17036
298,10601;19,87359;1201,42382;0,17050
298,40601;19,89357;1201,15122;0,17064
298,70601;19,91362;1199,91666;0,17077
299,00601;19,93362;1199,51554;0,17091
299,30601;19,95362;1199,30245;0,17104
299,60601;19,97357;1198,39069;0,17118
299,90601;19,99351;1197,59785;0,17131
300,20601;20,01359;1197,02136;0,17144
300,50601;20,03365;1196,05940;0,17157
300,80601;20,05362;1195,12249;0,17170
301,10601;20,07359;1195,31993;0,17183
301,40601;20,09362;1194,32351;0,17196
301,70601;20,11362;1192,99171;0,17209
302,00601;20,13360;1191,75715;0,17221
302,30601;20,15357;1191,68200;0,17234
302,60601;20,17357;1190,93936;0,17246
302,90601;20,19354;1189,98364;0,17258
303,20601;20,21362;1189,11574;0,17271
303,50601;20,23362;1188,63629;0,17283
303,80601;20,25365;1186,87535;0,17295
304,10601;20,27359;1186,70613;0,17307
304,40601;20,29359;1186,00419;0,17318
304,70601;20,31359;1184,10848;0,17330
305,00601;20,33360;1183,84846;0,17341
305,30601;20,35360;1182,25040;0,17353
305,60601;20,37354;1181,17873;0,17363
305,90601;20,39362;1180,07269;0,17375
306,20601;20,41357;1179,52432;0,17385
306,50601;20,43362;1178,23016;0,17396
306,80601;20,45365;1176,53813;0,17407
307,10601;20,47359;1175,27535;0,17417
307,40601;20,49362;1174,99018;0,17427
307,70601;20,51359;1173,70551;0,17436
308,00601;20,53362;1172,19836;0,17446
308,30601;20,55357;1170,31513;0,17456
308,60601;20,57354;1169,18394;0,17464
308,90601;20,59359;1168,13118;0,17473
309,20601;20,61357;1165,54918;0,17482
309,50601;20,63362;1164,53711;0,17490
309,80601;20,65362;1162,90143;0,17498
310,10601;20,67365;1160,28190;0,17505
310,40601;20,69362;1159,50480;0,17512
310,70601;20,71359;1157,05766;0,17519
311,00601;20,73359;1155,64764;0,17525
311,30601;20,75357;1152,33241;0,17530
311,60601;20,77356;1150,43046;0,17534
311,90601;20,79357;1146,32882;0,17534
312,20601;20,81362;1141,04273;0,17531
312,50601;20,83365;1136,13885;0,17527
312,80601;20,85359;1130,70868;0,17522
313,10601;20,87362;1125,23139;0,17517
313,40601;20,89359;1119,43772;0,17510
313,70601;20,91357;1111,93629;0,17501
314,00601;20,93360;1104,60091;0,17489
314,30601;20,95362;1096,48220;0,17477
314,60601;20,97359;1087,92800;0,17462
314,90601;20,99354;1078,86614;0,17444
315,20601;21,01357;1069,92330;0,17426
315,50601;21,03362;1059,00336;0,17405
315,80601;21,05362;1047,61338;0,17380
316,10602;21,07362;1034,66287;0,17353
316,40602;21,09362;1021,44927;0,17323
316,70602;21,11362;1006,54354;0,17290
317,00602;21,13357;990,66645;0,17253
317,30602;21,15359;973,12555;0,17212
317,60602;21,17354;952,82719;0,17165
317,90602;21,19357;931,49487;0,17114
318,20602;21,21362;905,95121;0,17056
318,50602;21,23362;879,77452;0,16992
318,80602;21,25368;850,21695;0,16922
319,10602;21,27359;814,55233;0,16842
319,40602;21,29359;775,97043;0,16748
319,70602;21,31362;725,47840;0,16635
320,00602;21,33359;654,58780;0,16485
320,30602;21,35362;482,49378;0,16186
320,46402;21,36416;-32,13375;0,15551
320,76402;21,38413;-32,20268;0,15318
321,06402;21,40416;-31,15925;0,15159
321,36402;21,42411;-32,53795;0,15028
321,66402;21,44416;-32,55989;0,14914
321,96402;21,46414;-32,25282;0,14813
322,26402;21,48405;-32,34055;0,14719
322,56402;21,50411;-31,74833;0,14633
322,59002;21,50584;-32,19642;0,14626