File: 02_Appendices/Appendix_C_Experimental_Data/C_1_Materials_Tests/C_1_1_Tensile_tests/C_1_1_1_Quantun_70_30/Specimen_RawData_9.csv
Text Inputs : Specimen label;"1"
Dimension : Length;50,00000;mm
Dimension : Final length;100,00000;mm
Test : Rate 1;2,00000;mm/min
General : Unique Identifier;"{F406A3CB-6C5B-4562-A6FE-F41218412086}"

Time;Extension;Load;Strain 1
(sec);(mm);(N);(mm/mm)
0,00000;0,00000;10,49356;0,00009
0,30000;0,00171;10,43716;0,00008
0,60000;0,01624;25,92881;0,00014
0,90000;0,02991;37,06501;0,00025
1,20000;0,04017;45,91381;0,00033
1,50000;0,05014;55,02268;0,00040
1,80000;0,06040;62,43635;0,00048
2,10000;0,07009;70,33886;0,00055
2,40000;0,08034;78,21003;0,00063
2,70000;0,09003;85,36676;0,00070
3,00000;0,09971;92,56738;0,00077
3,30000;0,10997;98,81230;0,00085
3,60000;0,11966;102,94842;0,00091
3,90000;0,12991;106,73046;0,00097
4,20000;0,13960;108,80792;0,00100
4,50000;0,14957;108,71706;0,00103
4,80000;0,15897;108,56352;0,00104
5,10000;0,16980;109,83255;0,00106
5,40000;0,17949;109,43774;0,00107
5,70000;0,19003;110,23050;0,00108
6,00000;0,20085;110,52818;0,00109
6,30000;0,20940;109,19333;0,00110
6,60000;0,22023;110,97939;0,00111
6,90000;0,22963;109,72602;0,00112
7,20000;0,24017;111,58100;0,00113
7,50000;0,25014;111,07966;0,00114
7,80000;0,25983;110,36524;0,00114
8,10000;0,27037;111,21440;0,00115
8,40000;0,27977;110,56891;0,00115
8,70000;0,29031;111,24572;0,00116
9,00000;0,30000;111,24259;0,00116
9,30000;0,30997;110,78198;0,00117
9,60000;0,32023;111,71574;0,00117
9,90000;0,32963;111,04206;0,00118
10,20000;0,34017;111,86928;0,00118
10,50000;0,35014;111,79408;0,00118
10,80000;0,36040;111,31780;0,00118
11,10000;0,36980;112,02282;0,00118
11,40000;0,37977;111,63114;0,00119
11,70000;0,39003;112,61817;0,00119
12,00000;0,40000;112,03849;0,00119
12,30000;0,41054;111,48701;0,00119
12,60000;0,42023;113,03178;0,00120
12,90000;0,43020;111,57787;0,00120
13,20000;0,44046;111,66874;0,00120
13,50000;0,44957;112,30482;0,00120
13,80000;0,46040;112,09175;0,00120
14,10000;0,46980;113,37646;0,00121
14,40000;0,48006;114,88990;0,00122
14,70000;0,49003;117,23057;0,00123
15,00000;0,49943;120,10706;0,00126
15,30000;0,50997;126,72485;0,00130
15,60000;0,51966;131,38739;0,00135
15,90000;0,52991;136,09066;0,00139
16,20000;0,53989;139,93850;0,00143
16,50000;0,54986;144,27203;0,00146
16,80000;0,56011;148,33922;0,00149
17,10000;0,57008;152,49101;0,00152
17,40000;0,58034;157,99644;0,00157
17,70000;0,58946;161,76595;0,00162
18,00000;0,59971;168,51848;0,00167
18,30000;0,60969;174,46572;0,00172
18,60000;0,61994;181,49713;0,00178
18,90000;0,63048;187,96138;0,00183
19,20000;0,64017;192,09437;0,00188
19,50000;0,65100;198,61504;0,00194
19,80000;0,66011;204,90694;0,00199
20,10000;0,67037;212,26422;0,00206
20,40000;0,68034;218,67522;0,00213
20,70000;0,69003;225,40581;0,00219
21,00000;0,70028;231,71341;0,00227
21,30000;0,70969;237,93012;0,00233
21,60000;0,71994;245,24040;0,00240
21,90000;0,72963;251,41325;0,00247
22,20000;0,73989;257,18815;0,00254
22,50000;0,74986;264,41384;0,00261
22,80000;0,75983;270,48327;0,00268
23,10000;0,77008;278,28552;0,00275
23,40000;0,77977;283,38672;0,00282
23,70000;0,79031;289,72251;0,00289
24,00000;0,79943;295,36267;0,00295
24,30000;0,80940;301,21906;0,00301
24,60000;0,81966;308,12512;0,00309
24,90000;0,82877;312,47118;0,00315
25,20000;0,83989;320,09480;0,00323
25,50000;0,84986;325,10201;0,00329
25,80000;0,86068;332,07703;0,00337
26,10000;0,87094;339,46563;0,00344
26,40000;0,88006;343,87123;0,00350
26,70000;0,89031;349,74015;0,00357
27,00000;0,89971;354,97609;0,00363
27,30000;0,91026;360,97348;0,00370
27,60000;0,92023;368,44984;0,00377
27,90000;0,92991;373,35991;0,00384
28,20000;0,93988;379,14421;0,00390
28,50000;0,94986;383,98849;0,00397
28,80000;0,96040;390,73476;0,00404
29,10000;0,97008;396,68200;0,00411
29,40000;0,98034;402,71385;0,00418
29,70000;0,98974;407,74923;0,00424
30,00000;1,00000;414,15710;0,00431
30,30000;1,01026;419,37740;0,00438
30,60000;1,01937;424,42847;0,00444
30,90000;1,02963;431,12775;0,00451
31,20000;1,03903;434,24862;0,00457
31,50000;1,04929;440,04545;0,00465
31,80000;1,06011;447,40587;0,00472
32,10000;1,07008;453,24657;0,00479
32,40000;1,08034;459,07474;0,00486
32,70000;1,09060;463,96917;0,00492
33,00000;1,10057;468,67873;0,00499
33,30000;1,11026;474,46615;0,00505
33,60000;1,11966;480,28491;0,00512
33,90000;1,13020;485,51145;0,00519
34,20000;1,14017;491,08895;0,00525
34,50000;1,15014;496,14320;0,00532
34,80000;1,15954;501,68619;0,00539
35,10000;1,16980;507,35772;0,00546
35,40000;1,18006;514,54264;0,00553
35,70000;1,19031;518,90123;0,00560
36,00000;1,20057;523,51365;0,00567
36,30000;1,20969;528,83732;0,00573
36,60000;1,22023;535,30787;0,00580
36,90000;1,22991;539,75731;0,00586
37,20000;1,24017;545,21263;0,00593
37,50000;1,24957;549,78114;0,00599
37,80000;1,25897;554,75077;0,00605
38,10000;1,26980;560,79202;0,00612
38,40000;1,27977;565,73031;0,00619
38,70000;1,29031;572,07546;0,00626
39,00000;1,30028;576,18027;0,00633
39,30000;1,31082;580,92740;0,00639
39,60000;1,32023;587,14412;0,00646
39,90000;1,32963;591,29279;0,00651
40,20000;1,33960;597,17107;0,00658
40,50000;1,34986;601,56416;0,00664
40,80000;1,36011;607,15419;0,00671
41,10000;1,36980;612,84760;0,00677
41,40000;1,37977;616,93047;0,00684
41,70000;1,38974;622,19463;0,00690
42,00000;1,40000;627,70005;0,00697
42,30000;1,41054;632,53492;0,00704
42,60000;1,41994;638,04034;0,00710
42,90000;1,43020;642,00102;0,00716
43,20000;1,43988;647,19934;0,00723
43,50000;1,44957;650,76519;0,00729
43,80000;1,46040;657,34228;0,00736
44,10000;1,46951;661,67265;0,00742
44,40000;1,47977;665,57066;0,00748
44,70000;1,48974;670,30210;0,00755
45,00000;1,49971;675,32812;0,00761
45,30000;1,51025;680,67373;0,00768
45,60000;1,52023;686,43610;0,00774
45,90000;1,53077;689,47552;0,00781
46,20000;1,54017;693,75266;0,00786
46,50000;1,55043;698,04857;0,00792
46,80000;1,55983;702,06877;0,00798
47,10000;1,56980;707,27025;0,00803
47,40000;1,58006;710,86744;0,00809
47,70000;1,59003;715,11324;0,00815
48,00000;1,60028;718,87020;0,00821
48,30000;1,60968;722,73370;0,00826
48,60000;1,61994;728,14827;0,00832
48,90000;1,63020;731,74234;0,00838
49,20000;1,63988;736,31713;0,00844
49,50000;1,65043;740,55977;0,00851
49,80000;1,65954;744,53298;0,00856
50,10000;1,66980;749,58405;0,00863
50,40000;1,68006;754,73227;0,00869
50,70000;1,68946;757,52414;0,00875
51,00000;1,69943;762,12087;0,00881
51,30000;1,70883;765,55824;0,00887
51,60000;1,71994;771,89715;0,00894
51,90000;1,72991;775,80144;0,00900
52,20000;1,74074;779,14479;0,00906
52,50000;1,75043;783,28717;0,00912
52,80000;1,76040;787,86192;0,00917
53,10000;1,77037;791,89157;0,00923
53,40000;1,78034;795,88667;0,00929
53,70000;1,79031;799,71254;0,00935
54,00000;1,80000;803,01203;0,00940
54,30000;1,81025;808,34515;0,00947
54,60000;1,82051;812,31836;0,00952
54,90000;1,82963;814,79065;0,00958
55,20000;1,84017;819,43749;0,00964
55,50000;1,84986;823,53596;0,00970
55,80000;1,86040;828,06693;0,00976
56,10000;1,87037;832,35661;0,00981
56,40000;1,87949;834,20221;0,00986
56,70000;1,89003;839,94260;0,00993
57,00000;1,89971;842,33340;0,00999
57,30000;1,91025;847,00221;0,01005
57,60000;1,91937;850,44270;0,01010
57,90000;1,92934;853,45395;0,01016
58,20000;1,93931;857,70600;0,01022
58,50000;1,94957;862,41867;0,01027
58,80000;1,96040;866,32920;0,01034
59,10000;1,96980;870,52174;0,01039
59,40000;1,98062;874,10323;0,01045
59,70000;1,99003;877,72235;0,01051
60,00000;2,00057;881,29761;0,01057
60,30000;2,01054;885,56530;0,01062
60,60000;2,01966;889,09669;0,01068
60,90000;2,03077;892,84740;0,01074
61,20000;2,03988;896,09046;0,01079
61,50000;2,05042;901,44863;0,01086
61,80000;2,06040;904,90170;0,01091
62,10000;2,06980;907,77501;0,01097
62,40000;2,08034;911,25313;0,01103
62,70000;2,09003;915,52706;0,01108
63,00000;2,10000;919,20579;0,01114
63,30000;2,10997;923,65835;0,01120
63,60000;2,11994;927,52501;0,01126
63,90000;2,12991;930,99056;0,01132
64,20000;2,13960;933,60068;0,01137
64,50000;2,14957;938,15047;0,01143
64,80000;2,15897;941,12093;0,01149
65,10000;2,16980;945,83984;0,01155
65,40000;2,17977;949,66888;0,01161
65,70000;2,19003;953,99618;0,01167
66,00000;2,20085;957,47737;0,01173
66,30000;2,20968;960,32256;0,01178
66,60000;2,22023;964,63412;0,01184
66,90000;2,22963;967,29752;0,01189
67,20000;2,24045;971,33964;0,01196
67,50000;2,25014;974,99015;0,01202
67,80000;2,25983;977,99199;0,01207
68,10000;2,27037;983,42840;0,01213
68,40000;2,27977;984,44680;0,01218
68,70000;2,29003;989,88954;0,01225
69,00000;2,30000;992,65007;0,01231
69,30000;2,31025;997,60406;0,01237
69,60000;2,32051;1002,02216;0,01243
69,90000;2,32991;1004,83289;0,01248
70,20000;2,34017;1008,48330;0,01254
70,50000;2,35014;1012,43770;0,01260
70,80000;2,36040;1016,37645;0,01266
71,10000;2,36951;1019,52860;0,01272
71,40000;2,37948;1022,18576;0,01277
71,70000;2,39003;1026,98617;0,01284
72,00000;2,39943;1029,98484;0,01289
72,30000;2,41054;1034,98586;0,01296
72,60000;2,42023;1037,95314;0,01302
72,90000;2,43048;1042,74731;0,01308
73,20000;2,44045;1045,23525;0,01314
73,50000;2,44957;1048,79485;0,01319
73,80000;2,46011;1053,20355;0,01325
74,10000;2,46980;1055,26224;0,01331
74,40000;2,48005;1058,93146;0,01337
74,70000;2,48974;1062,84507;0,01343
75,00000;2,49943;1065,59936;0,01348
75,30000;2,50997;1070,33085;0,01354
75,60000;2,51994;1073,38596;0,01360
75,90000;2,53020;1076,82645;0,01366
76,20000;2,54017;1080,92502;0,01372
76,50000;2,55014;1083,73566;0,01378
76,80000;2,55983;1087,59915;0,01384
77,10000;2,57008;1090,99895;0,01390
77,40000;2,58034;1094,78096;0,01396
77,70000;2,58917;1097,55723;0,01401
78,00000;2,59971;1101,29537;0,01408
78,30000;2,60911;1104,61051;0,01414
78,60000;2,62023;1108,81869;0,01420
78,90000;2,63077;1113,23372;0,01427
79,20000;2,64045;1116,37972;0,01432
79,50000;2,65128;1121,01715;0,01439
79,80000;2,66011;1123,05386;0,01445
80,10000;2,67037;1126,51633;0,01451
80,40000;2,68034;1130,16674;0,01457
80,70000;2,69003;1133,01501;0,01463
81,00000;2,70028;1137,03208;0,01470
81,30000;2,70968;1139,16593;0,01475
81,60000;2,71966;1143,24568;0,01481
81,90000;2,72991;1146,34465;0,01487
82,20000;2,74017;1150,25202;0,01494
82,50000;2,75014;1153,88678;0,01500
82,80000;2,76011;1156,97952;0,01506
83,10000;2,76980;1160,01889;0,01512
83,40000;2,77977;1163,33095;0,01518
83,70000;2,79031;1167,23832;0,01524
84,00000;2,79943;1169,92677;0,01530
84,30000;2,80911;1172,48995;0,01536
84,60000;2,81965;1176,72002;0,01542
84,90000;2,82906;1179,53075;0,01548
85,20000;2,83988;1184,36879;0,01555
85,50000;2,85014;1187,82492;0,01561
85,80000;2,86040;1190,60110;0,01567
86,10000;2,87094;1194,72472;0,01574
86,40000;2,88005;1197,48218;0,01579
86,70000;2,89060;1201,17646;0,01586
87,00000;2,89971;1203,52963;0,01591
87,30000;2,90997;1207,63760;0,01597
87,60000;2,92022;1210,73965;0,01604
87,90000;2,93020;1213,61930;0,01610
88,20000;2,94017;1217,82124;0,01616
88,50000;2,94985;1220,17441;0,01622
88,80000;2,96040;1224,37635;0,01629
89,10000;2,97008;1227,08045;0,01635
89,40000;2,98062;1230,81235;0,01641
89,70000;2,98946;1233,51337;0,01647
90,00000;2,99971;1237,20458;0,01653
90,30000;3,01025;1240,81112;0,01660
90,60000;3,01965;1243,28025;0,01666
90,90000;3,02963;1247,27851;0,01672
91,20000;3,03874;1248,78883;0,01677
91,50000;3,04928;1253,15376;0,01684
91,80000;3,06011;1256,64435;0,01691
92,10000;3,07008;1259,15110;0,01698
92,40000;3,08062;1263,97340;0,01704
92,70000;3,09031;1266,78729;0,01710
93,00000;3,10028;1270,25284;0,01716
93,30000;3,11025;1272,74701;0,01723
93,60000;3,12022;1275,88045;0,01729
93,90000;3,12991;1279,27391;0,01735
94,20000;3,13988;1281,84026;0,01741
94,50000;3,15042;1285,59722;0,01748
94,80000;3,16011;1288,39538;0,01754
95,10000;3,17037;1291,91102;0,01761
95,40000;3,18005;1295,42053;0,01767
95,70000;3,19031;1298,46614;0,01774
96,00000;3,20057;1301,43669;0,01781
96,30000;3,20968;1304,22544;0,01786
96,60000;3,21994;1306,88259;0,01793
96,90000;3,22963;1310,96859;0,01799
97,20000;3,24017;1314,79762;0,01805
97,50000;3,24985;1316,86563;0,01812
97,80000;3,25954;1319,02462;0,01818
98,10000;3,26980;1322,93822;0,01824
98,40000;3,27977;1326,59804;0,01831
98,70000;3,29031;1329,99467;0,01838
99,00000;3,30000;1332,86491;0,01844
99,30000;3,31025;1335,72258;0,01850
99,60000;3,32022;1339,13178;0,01857
99,90000;3,32991;1342,05213;0,01863
100,20000;3,33988;1345,05713;0,01869
100,50000;3,34985;1347,41338;0,01876
100,80000;3,36011;1350,40581;0,01882
101,10000;3,37008;1353,78055;0,01889
101,40000;3,38005;1356,97667;0,01896
101,70000;3,39002;1359,98158;0,01902
102,00000;3,39971;1362,78914;0,01909
102,30000;3,41025;1366,34242;0,01916
102,60000;3,41994;1368,41675;0,01922
102,90000;3,43020;1371,97636;0,01929
103,20000;3,44017;1375,74896;0,01936
103,50000;3,44928;1377,27810;0,01941
103,80000;3,46040;1380,95673;0,01949
104,10000;3,46980;1383,39456;0,01955
104,40000;3,47977;1386,96041;0,01962
104,70000;3,48945;1389,48280;0,01968
105,00000;3,49971;1392,70080;0,01975
105,30001;3,51025;1396,12248;0,01983
105,60001;3,52051;1398,92381;0,01989
105,90001;3,53077;1402,25776;0,01996
106,20001;3,54017;1404,83035;0,02002
106,50001;3,55014;1407,50622;0,02008
106,80001;3,56039;1410,50499;0,02015
107,10001;3,57008;1413,43158;0,02022
107,40001;3,58005;1416,67463;0,02029
107,70001;3,59002;1419,31614;0,02035
108,00001;3,60028;1422,03905;0,02042
108,30001;3,60968;1424,82156;0,02048
108,60001;3,62022;1427,93935;0,02056
108,90001;3,63020;1430,68107;0,02062
109,20001;3,63960;1433,11890;0,02069
109,50001;3,65042;1437,26757;0,02076
109,80001;3,65954;1438,61491;0,02082
110,10001;3,66980;1441,78905;0,02089
110,40001;3,68005;1445,15438;0,02096
110,70001;3,68945;1447,08455;0,02102
111,00001;3,69971;1450,31195;0,02109
111,30001;3,70940;1452,00714;0,02115
111,60001;3,71965;1455,66072;0,02122
111,90001;3,72991;1458,25520;0,02129
112,20001;3,74045;1461,29150;0,02136
112,50001;3,75071;1464,10223;0,02143
112,80001;3,76011;1467,11972;0,02150
113,10001;3,77037;1469,75806;0,02157
113,40001;3,78005;1472,79119;0,02163
113,70001;3,79088;1475,81184;0,02171
114,00001;3,80000;1477,74508;0,02177
114,30001;3,81025;1480,80019;0,02184
114,60001;3,82022;1483,50745;0,02191
114,90001;3,82963;1485,72596;0,02197
115,20001;3,84045;1488,88445;0,02204
115,50001;3,84985;1491,10602;0,02211
115,80001;3,86011;1493,19610;0,02218
116,10001;3,87037;1496,23230;0,02225
116,40001;3,87948;1497,96195;0,02231
116,70001;3,89002;1501,97595;0,02239
117,00001;3,89971;1503,56768;0,02245
117,30001;3,90997;1507,02074;0,02252
117,60001;3,91937;1508,90388;0,02259
117,90001;3,92963;1512,03107;0,02266
118,20001;3,93931;1513,94559;0,02272
118,50001;3,94928;1515,93536;0,02279
118,80001;3,96039;1520,18741;0,02287
119,10001;3,96980;1522,24917;0,02294
119,40001;3,98119;1525,82442;0,02302
119,70001;3,99002;1527,34416;0,02308
120,00001;4,00028;1529,81635;0,02315
120,30001;4,01054;1532,48925;0,02322
120,60001;4,01994;1534,81420;0,02329
120,90001;4,03076;1537,57166;0,02337
121,20001;4,03988;1538,77800;0,02343
121,50001;4,05014;1542,82013;0,02351
121,80001;4,06011;1545,14508;0,02358
122,10001;4,07008;1547,29467;0,02365
122,40001;4,08034;1550,04896;0,02372
122,70001;4,09002;1552,57760;0,02379
123,00001;4,10000;1554,88066;0,02386
123,30001;4,11025;1557,27146;0,02394
123,60001;4,12022;1559,78138;0,02401
123,90001;4,13020;1562,66093;0,02408
124,20001;4,13960;1563,77647;0,02415
124,50001;4,14957;1565,83190;0,02422
124,80001;4,15897;1567,73385;0,02429
125,10001;4,16980;1571,76033;0,02437
125,40001;4,17977;1573,85673;0,02444
125,70001;4,19002;1576,63599;0,02452
126,00001;4,20085;1579,25859;0,02459
126,30001;4,20997;1580,63117;0,02466
126,60001;4,22051;1583,70808;0,02473
126,90001;4,22962;1585,86390;0,02480
127,20001;4,23988;1587,89121;0,02488
127,50001;4,25042;1590,95265;0,02495
127,80001;4,25925;1591,93017;0,02502
128,10001;4,27037;1594,64069;0,02510
128,40001;4,27948;1596,90920;0,02516
128,70001;4,29031;1599,81083;0,02525
129,00001;4,30028;1602,09499;0,02532
129,30001;4,30997;1604,02209;0,02539
129,60001;4,32051;1606,34406;0,02547
129,90001;4,32991;1608,99796;0,02554
130,20001;4,34017;1611,11001;0,02561
130,50001;4,34985;1613,44130;0,02568
130,80001;4,36011;1615,42781;0,02576
131,10001;4,36951;1616,73129;0,02583
131,40001;4,37920;1619,57648;0,02590
131,70001;4,39002;1622,48425;0,02598
132,00001;4,39971;1624,83435;0,02605
132,30001;4,41054;1627,93323;0,02613
132,60001;4,42022;1630,01698;0,02620
132,90001;4,43076;1631,36758;0,02628
133,20001;4,44045;1633,58916;0,02635
133,50001;4,44957;1634,60746;0,02641
133,80001;4,46011;1637,61247;0,02650
134,10001;4,46980;1638,42402;0,02657
134,40001;4,48005;1641,14069;0,02665
134,70001;4,49002;1643,71319;0,02672
135,00001;4,49943;1645,13271;0,02679
135,30001;4,51025;1648,48231;0,02687
135,60001;4,52022;1650,41257;0,02695
135,90001;4,53048;1652,53375;0,02703
136,20001;4,53988;1653,98456;0,02710
136,50001;4,54985;1655,92730;0,02717
136,80001;4,56011;1658,56872;0,02725
137,10001;4,56980;1660,15122;0,02732
137,40001;4,58005;1662,57638;0,02740
137,70001;4,58917;1663,20633;0,02747
138,00001;4,59971;1666,09529;0,02755
138,30001;4,60968;1668,06318;0,02763
138,60001;4,61994;1670,60439;0,02771
138,90001;4,63076;1673,27709;0,02779
139,20001;4,64045;1674,21084;0,02786
139,50001;4,65099;1677,38814;0,02795
139,80001;4,65982;1677,90838;0,02801
140,10001;4,67008;1680,33987;0,02809
140,40001;4,68034;1681,68414;0,02817
140,70001;4,68974;1683,71759;0,02825
141,00001;4,70028;1685,97680;0,02833
141,30001;4,70968;1687,44959;0,02840
141,60001;4,71994;1689,78088;0,02848
141,90001;4,72991;1691,67351;0,02856
142,20001;4,74017;1693,24651;0,02864
142,50001;4,75014;1695,33323;0,02872
142,80001;4,75982;1696,99714;0,02879
143,10001;4,76979;1698,61708;0,02887
143,40001;4,77948;1699,81401;0,02894
143,70001;4,79031;1702,30512;0,02903
144,00001;4,79942;1703,64939;0,02910
144,30001;4,80911;1705,03128;0,02918
144,60001;4,81965;1707,20275;0,02927
144,90001;4,82905;1708,95122;0,02933
145,20001;4,84017;1711,68037;0,02942
145,50001;4,84985;1713,54469;0,02950
145,80001;4,86068;1715,31830;0,02959
146,10001;4,87093;1717,08241;0,02967
146,40001;4,88005;1717,84703;0,02974
146,70001;4,89031;1719,31963;0,02982
147,00001;4,89971;1720,34111;0,02989
147,30001;4,91025;1723,82239;0,02998
147,60001;4,92051;1724,78743;0,03007
147,90001;4,93019;1726,90246;0,03014
148,20001;4,94017;1728,39090;0,03023
148,50001;4,94985;1729,52525;0,03030
148,80001;4,96039;1731,77496;0,03039
149,10001;4,97008;1732,95010;0,03046
149,40001;4,98034;1735,02434;0,03054
149,70001;4,98945;1736,39990;0,03062
150,00001;4,99971;1737,42454;0,03070
150,30001;5,01025;1740,13507;0,03079
150,60001;5,01937;1740,59253;0,03087
150,90001;5,03019;1742,96442;0,03095
151,20001;5,03931;1743,88252;0,03103
151,50001;5,04957;1745,83793;0,03111
151,80001;5,06011;1747,35747;0,03120
152,10001;5,06951;1748,79581;0,03128
152,40001;5,08034;1750,96095;0,03137
152,70001;5,09002;1751,98875;0,03145
153,00001;5,10028;1753,58672;0,03153
153,30001;5,11025;1755,75204;0,03161
153,60001;5,11965;1755,50766;0,03169
153,90001;5,13048;1757,78568;0,03178
154,20001;5,14017;1759,44623;0,03186
154,50001;5,15042;1760,80316;0,03195
154,80001;5,15982;1762,71759;0,03202
155,10001;5,17008;1763,55429;0,03211
155,40001;5,18005;1765,51268;0,03220
155,70001;5,19031;1767,01359;0,03228
156,00001;5,20056;1768,30459;0,03237
156,30001;5,20968;1769,03456;0,03245
156,60001;5,21994;1770,90522;0,03253
156,90001;5,22962;1772,47506;0,03262
157,20001;5,24017;1773,42445;0,03271
157,50001;5,25014;1775,34837;0,03279
157,80001;5,25925;1776,02209;0,03287
158,10001;5,26951;1777,16278;0,03296
158,40001;5,27948;1778,22188;0,03304
158,70001;5,29002;1780,43712;0,03313
159,00001;5,29971;1782,30144;0,03322
159,30001;5,30997;1783,21339;0,03330
159,60001;5,32022;1784,31943;0,03339
159,90001;5,32991;1785,36922;0,03347
160,20001;5,34016;1787,34008;0,03356
160,50001;5,34985;1788,08589;0,03364
160,80001;5,36011;1789,22322;0,03373
161,10001;5,37008;1791,03129;0,03382
161,40001;5,37977;1791,58896;0,03390
161,70001;5,38974;1793,14315;0,03399
162,00001;5,39971;1794,39653;0,03407
162,30001;5,41054;1795,43048;0,03417
162,60001;5,41965;1796,27035;0,03425
162,90001;5,43019;1798,27251;0,03434
163,20001;5,44045;1799,38488;0,03443
163,50001;5,44957;1800,23722;0,03451
163,80001;5,46068;1802,20194;0,03461
164,10001;5,46951;1802,77843;0,03469
164,40001;5,47977;1804,10072;0,03478
164,70001;5,48917;1804,63977;0,03486
165,00001;5,49942;1805,58600;0,03495
165,30001;5,51025;1808,05512;0,03505
165,60001;5,52022;1808,22443;0,03513
165,90001;5,53076;1809,82556;0,03522
166,20001;5,54017;1810,58384;0,03531
166,50001;5,55042;1812,14418;0,03540
166,80001;5,56039;1813,17516;0,03549
167,10001;5,57008;1814,09009;0,03558
167,40001;5,58005;1815,29336;0,03566
167,70001;5,59002;1816,46831;0,03575
168,00001;5,60056;1816,99488;0,03584
168,30001;5,60968;1817,22045;0,03593
168,60001;5,61994;1819,27290;0,03602
168,90001;5,62991;1820,79244;0,03611
169,20001;5,63959;1821,03999;0,03619
169,50001;5,65042;1822,29038;0,03629
169,80001;5,65954;1822,32484;0,03637
170,10001;5,66979;1824,27373;0,03646
170,40001;5,68034;1825,29837;0,03656
170,70001;5,68945;1825,53027;0,03664
171,00001;5,69971;1827,04050;0,03673
171,30001;5,70911;1827,08763;0,03681
171,60001;5,71965;1828,67944;0,03691
171,90001;5,72962;1830,02986;0,03700
172,20001;5,74045;1831,31769;0,03709
172,50001;5,75071;1832,13558;0,03719
172,80001;5,76039;1832,99407;0,03728
173,10001;5,77065;1834,05951;0,03737
173,40001;5,78034;1834,33518;0,03746
173,70001;5,79031;1835,10911;0,03755
174,00001;5,79999;1836,03354;0,03764
174,30001;5,80997;1837,25562;0,03773
174,60001;5,82051;1837,90419;0,03783
174,90001;5,82962;1837,87905;0,03791
175,20001;5,84016;1839,17955;0,03801
175,50001;5,84985;1840,80880;0,03810
175,80001;5,86039;1841,39162;0,03819
176,10001;5,87065;1841,88988;0,03829
176,40001;5,87977;1843,05552;0,03837
176,70001;5,89002;1844,14275;0,03847
177,00001;5,89942;1843,49418;0,03856
177,30001;5,90968;1845,69079;0,03865
177,60001;5,91908;1845,59040;0,03874
177,90001;5,92905;1845,84111;0,03883
178,20001;5,93902;1846,87823;0,03893
178,50001;5,94928;1846,94417;0,03902
178,80001;5,96068;1849,81748;0,03913
179,10001;5,96979;1850,61339;0,03922
179,40001;5,98119;1851,25247;0,03932
179,70001;5,99002;1851,51584;0,03941
180,00001;6,00056;1852,96647;0,03950
180,30001;6,01053;1852,78486;0,03959
180,60001;6,01965;1852,59357;0,03968
180,90001;6,03048;1854,17924;0,03978
181,20001;6,03959;1854,89357;0,03987
181,50001;6,05042;1855,70195;0,03997
181,80001;6,06039;1856,23784;0,04007
182,10001;6,06979;1856,28477;0,04016
182,40001;6,08034;1858,41862;0,04026
182,70001;6,09031;1859,67200;0,04035
183,00001;6,10028;1859,08619;0,04045
183,30001;6,10996;1860,17659;0,04055
183,60001;6,11994;1860,34888;0,04064
183,90001;6,13019;1861,96268;0,04074
184,20001;6,13959;1861,25766;0,04083
184,50001;6,14957;1862,17260;0,04092
184,80001;6,15868;1862,35420;0,04101
185,10001;6,17008;1864,27198;0,04112
185,40001;6,18033;1864,92987;0,04122
185,70001;6,19031;1865,56913;0,04131
186,00001;6,20085;1865,43763;0,04142
186,30001;6,20968;1865,60676;0,04151
186,60001;6,22022;1866,90707;0,04160
186,90001;6,22962;1866,69398;0,04169
187,20001;6,23988;1867,53701;0,04179
187,50001;6,25014;1868,27015;0,04189
187,80001;6,25925;1867,74693;0,04198
188,10001;6,27065;1869,46709;0,04209
188,40001;6,27977;1869,22587;0,04218
188,70001;6,29002;1871,14049;0,04228
189,00001;6,30028;1871,80154;0,04238
189,30001;6,31025;1871,76708;0,04247
189,60001;6,32051;1872,52220;0,04258
189,90001;6,32991;1872,19325;0,04267
190,20001;6,34016;1872,90143;0,04277
190,50001;6,34985;1873,79122;0,04287
190,80001;6,36011;1874,53702;0,04297
191,10001;6,36951;1874,00114;0,04307
191,40001;6,37920;1875,02895;0,04316
191,70001;6,38974;1875,45829;0,04326
192,00001;6,39971;1876,37955;0,04336
192,30001;6,41082;1877,13783;0,04347
192,60001;6,41994;1877,25686;0,04357
192,90001;6,43019;1877,98999;0,04367
193,20001;6,44016;1877,93672;0,04376
193,50001;6,44957;1878,30348;0,04386
193,80001;6,46039;1879,20276;0,04396
194,10001;6,46922;1878,16247;0,04406
194,40001;6,48005;1879,83252;0,04416
194,70001;6,49031;1880,14898;0,04426
195,00001;6,49942;1879,46279;0,04435
195,30001;6,51025;1880,75695;0,04447
195,60001;6,51965;1880,70666;0,04456
195,90001;6,53048;1882,11370;0,04466
196,20001;6,54016;1882,59613;0,04476
196,50001;6,54985;1882,22956;0,04486
196,80001;6,55982;1883,28866;0,04497
197,10001;6,57008;1883,60829;0,04507
197,40001;6,57976;1883,68354;0,04517
197,70001;6,58917;1882,61196;0,04526
198,00001;6,59999;1884,50124;0,04537
198,30001;6,60911;1884,30082;0,04546
198,60001;6,62022;1884,57333;0,04557
198,90001;6,63105;1886,09306;0,04568
199,20001;6,64016;1885,58549;0,04578
199,50001;6,65070;1886,26852;0,04588
199,80001;6,65982;1885,79224;0,04597
200,10001;6,67036;1886,63825;0,04608
200,40001;6,68033;1887,32147;0,04618
200,70001;6,68974;1887,33395;0,04628
201,00001;6,70028;1887,10522;0,04639
201,30001;6,70996;1887,22424;0,04648
201,60001;6,72022;1888,13619;0,04659
201,90001;6,72991;1888,21759;0,04669
202,20001;6,74016;1888,23640;0,04679
202,50001;6,75014;1889,10123;0,04689
202,80001;6,75982;1888,37424;0,04699
203,10001;6,76979;1889,16381;0,04710
203,40001;6,77948;1888,95706;0,04720
203,70001;6,79002;1889,43967;0,04730
204,00001;6,79942;1889,19511;0,04740
204,30001;6,80939;1889,36125;0,04750
204,60001;6,81965;1890,17598;0,04761
204,90001;6,82877;1889,29234;0,04771
205,20001;6,83988;1890,31065;0,04782
205,50001;6,85013;1891,36975;0,04792
205,80001;6,86068;1891,64244;0,04803
206,10001;6,87093;1892,05911;0,04814
206,40001;6,87948;1891,30083;0,04823
206,70001;6,89031;1892,19080;0,04834
207,00001;6,89971;1891,41370;0,04844
207,30001;6,91082;1892,32547;0,04855
207,60001;6,92051;1892,43518;0,04865
207,90001;6,93019;1892,50093;0,04875
208,20001;6,94045;1892,54489;0,04886
208,50001;6,94985;1892,82373;0,04896
208,80001;6,96068;1893,26238;0,04907
209,10001;6,96979;1893,23109;0,04917
209,40001;6,98033;1893,76678;0,04928
209,70001;6,98974;1893,97987;0,04938
210,00001;6,99999;1894,59417;0,04948
210,30001;7,01025;1894,20860;0,04959
210,60001;7,01937;1893,63211;0,04970
210,90001;7,03019;1894,68805;0,04981
211,20001;7,03931;1893,71668;0,04990
211,50001;7,04956;1893,54755;0,05001
211,80001;7,06011;1894,72251;0,05012
212,10001;7,06951;1894,48129;0,05021
212,31601;7,07748;1895,12670;0,05030
212,61601;7,08746;1894,86351;0,05040
212,91601;7,09771;1894,57834;0,05051
213,21601;7,10711;1894,95124;0,05062
213,51601;7,11709;1894,32465;0,05072
213,81601;7,12763;1895,43385;0,05083
214,11601;7,13674;1895,74398;0,05093
214,41601;7,14729;1895,16433;0,05104
214,71601;7,15697;1895,85369;0,05114
215,01601;7,16637;1894,53140;0,05124
215,31601;7,17749;1895,33979;0,05136
215,61601;7,18689;1895,64060;0,05146
215,91601;7,19743;1896,15767;0,05157
216,21601;7,20711;1895,75981;0,05168
216,51601;7,21652;1895,61564;0,05178
216,81601;7,22734;1896,53672;0,05190
217,11601;7,23731;1896,95675;0,05201
217,41601;7,24729;1896,63395;0,05211
217,71601;7,25612;1895,15818;0,05221
218,01601;7,26666;1895,74100;0,05232
218,31601;7,27663;1895,95707;0,05242
218,61601;7,28660;1896,07926;0,05253
218,91601;7,29771;1896,74366;0,05265
219,21601;7,30740;1896,15451;0,05276
219,51601;7,31794;1897,53640;0,05287
219,81601;7,32706;1897,70237;0,05297
220,11601;7,33731;1896,94110;0,05308
220,41601;7,34757;1897,27638;0,05319
220,71601;7,35697;1896,71852;0,05329
221,01601;7,36751;1897,48313;0,05340
221,31601;7,37692;1896,74981;0,05350
221,61601;7,38689;1897,08825;0,05361
221,91601;7,39686;1897,37659;0,05372
222,21601;7,40683;1897,06329;0,05383
222,51601;7,41709;1896,69356;0,05394
222,81601;7,42734;1897,14786;0,05405
223,11601;7,43760;1897,33580;0,05416
223,41601;7,44672;1897,06329;0,05426
223,71601;7,45754;1897,00685;0,05438
224,01601;7,46694;1897,05379;0,05449
224,31601;7,47634;1896,14203;0,05459
224,61601;7,48632;1896,00717;0,05469
224,91601;7,49543;1894,57536;0,05480
225,21601;7,50711;1896,65593;0,05492
225,51601;7,51766;1897,08509;0,05504
225,81601;7,52791;1897,32015;0,05515
226,11601;7,53788;1897,69305;0,05526
226,41601;7,54757;1897,21994;0,05536
226,71601;7,55783;1897,28886;0,05548
227,01601;7,56723;1897,40155;0,05558
227,31601;7,57748;1896,57435;0,05569
227,61601;7,58717;1896,74050;0,05580
227,91601;7,59714;1896,04182;0,05590
228,21601;7,60711;1896,94725;0,05602
228,51601;7,61737;1896,80625;0,05613
228,81601;7,62763;1896,66841;0,05624
229,11601;7,63703;1896,99735;0,05635
229,41601;7,64729;1897,02883;0,05646
229,71601;7,65726;1896,30184;0,05657
230,01601;7,66666;1895,90082;0,05667
230,31601;7,67720;1897,14152;0,05678
230,61601;7,68660;1894,68190;0,05689
230,91601;7,69686;1895,58119;0,05700
231,21601;7,70626;1894,76646;0,05710
231,51601;7,71623;1894,85420;0,05721
231,81601;7,72706;1895,90380;0,05733
232,11601;7,73674;1894,53773;0,05744
232,41601;7,74814;1895,98221;0,05756
232,71601;7,75726;1895,42137;0,05767
233,01601;7,76751;1895,20828;0,05778
233,31601;7,77720;1894,52507;0,05789
233,61601;7,78717;1894,21494;0,05800
233,91601;7,79743;1894,59100;0,05811
234,21601;7,80654;1893,82955;0,05821
234,51601;7,81737;1894,27454;0,05833
234,81601;7,82706;1893,80758;0,05844
235,11601;7,83731;1893,33763;0,05855
235,41601;7,84757;1894,48763;0,05867
235,71601;7,85697;1894,08958;0,05878
236,01601;7,86780;1894,09908;0,05889
236,31601;7,87691;1893,01167;0,05900
236,61601;7,88774;1893,35011;0,05912
236,91601;7,89686;1893,00235;0,05922
237,21601;7,90711;1893,44101;0,05934
237,51601;7,91680;1893,23109;0,05945
237,81601;7,92592;1892,70768;0,05955
238,11601;7,93674;1893,06177;0,05967
238,41601;7,94614;1892,37874;0,05978
238,71601;7,95726;1893,05246;0,05990
239,01601;7,96751;1892,98969;0,06002
239,31601;7,97777;1892,13753;0,06013
239,61601;7,98746;1892,46964;0,06025
239,91601;7,99686;1891,03130;0,06035
240,21601;8,00711;1892,49478;0,06047
240,51601;8,01708;1891,24756;0,06058
240,81601;8,02734;1892,08109;0,06069
241,11601;8,03674;1891,26953;0,06080
241,41601;8,04700;1891,39806;0,06092
241,71601;8,05754;1891,35410;0,06103
242,01601;8,06723;1890,40471;0,06114
242,31601;8,07805;1891,92444;0,06127
242,61601;8,08717;1890,19162;0,06137
242,91601;8,09743;1890,65859;0,06148
243,21601;8,10740;1891,42935;0,06160
243,51601;8,11680;1890,15716;0,06171
243,81601;8,12763;1890,69305;0,06183
244,11601;8,13646;1888,71883;0,06193
244,41601;8,14700;1889,38938;0,06205
244,71601;8,15640;1889,62445;0,06217
245,01601;8,16666;1888,49010;0,06227
245,31601;8,17777;1889,83753;0,06240
245,61601;8,18774;1889,28302;0,06252
245,91601;8,19828;1890,11954;0,06264
246,21601;8,20740;1889,71851;0,06274
246,51601;8,21708;1888,81923;0,06285
246,81601;8,22706;1889,07292;0,06297
247,11601;8,23674;1888,83804;0,06308
247,41601;8,24757;1888,49010;0,06320
247,71601;8,25697;1887,77894;0,06331
248,01601;8,26723;1888,18630;0,06343
248,31601;8,27663;1888,32730;0,06354
248,61601;8,28746;1887,80092;0,06366
248,91601;8,29743;1886,85451;0,06378
249,21601;8,30683;1885,79857;0,06389
249,51601;8,31737;1887,93242;0,06401
249,81601;8,32649;1886,33744;0,06412
250,11601;8,33674;1886,06810;0,06423
250,41601;8,34728;1886,76361;0,06435
250,71601;8,35669;1886,27169;0,06446
251,01601;8,36723;1887,02997;0,06458
251,31601;8,37606;1885,05277;0,06469
251,61601;8,38688;1885,75778;0,06482
251,91601;8,39714;1886,47546;0,06493
252,21601;8,40740;1886,03047;0,06505
252,51601;8,41794;1886,69469;0,06517
252,81601;8,42763;1885,77659;0,06529
253,11601;8,43788;1885,75778;0,06540
253,41601;8,44700;1884,07823;0,06551
253,71601;8,45754;1885,15931;0,06563
254,01601;8,46723;1884,93691;0,06574
254,31601;8,47748;1884,64224;0,06586
254,61601;8,48717;1884,23507;0,06597
254,91601;8,49629;1883,53006;0,06608
255,21601;8,50768;1884,35409;0,06621
255,51601;8,51708;1884,16298;0,06632
255,81601;8,52706;1883,65225;0,06644
256,11601;8,53731;1883,22291;0,06656
256,41601;8,54643;1882,37373;0,06666
256,71601;8,55726;1883,82454;0,06679
257,01601;8,56666;1882,17312;0,06690
257,31601;8,57720;1883,05993;0,06702
257,61601;8,58632;1881,72199;0,06713
257,91601;8,59629;1881,85051;0,06724
258,21601;8,60683;1882,96903;0,06737
258,51601;8,61623;1881,32096;0,06748
258,81601;8,62791;1881,59030;0,06760
259,11601;8,63731;1882,03212;0,06772
259,41601;8,64814;1882,40502;0,06784
259,71601;8,65725;1881,30829;0,06795
260,01601;8,66723;1881,24254;0,06807
260,31601;8,67777;1880,94489;0,06819
260,61601;8,68717;1881,01064;0,06830
260,91601;8,69800;1880,71616;0,06842
261,21601;8,70711;1879,95788;0,06853
261,51601;8,71737;1880,18661;0,06865
261,81601;8,72734;1880,33693;0,06876
262,11601;8,73674;1878,53836;0,06888
262,41601;8,74757;1878,82669;0,06900
262,71601;8,75697;1878,79223;0,06911
263,01601;8,76694;1878,36923;0,06922
263,31601;8,77691;1878,31279;0,06934
263,61601;8,78745;1878,64807;0,06946
263,91601;8,79714;1878,04643;0,06958
264,21601;8,80626;1877,23804;0,06969
264,51601;8,81651;1876,58314;0,06981
264,81601;8,82592;1876,24153;0,06992
265,11601;8,83674;1877,65174;0,07004
265,41601;8,84757;1877,05010;0,07016
265,71601;8,85725;1876,92158;0,07028
266,01601;8,86780;1876,49224;0,07040
266,31601;8,87663;1876,53936;0,07051
266,61601;8,88774;1876,59562;0,07063
266,91601;8,89686;1876,34192;0,07074
267,21601;8,90740;1875,52720;0,07086
267,51601;8,91765;1876,11636;0,07099
267,81601;8,92677;1874,99765;0,07110
268,11601;8,93788;1875,16380;0,07122
268,41601;8,94614;1873,24919;0,07132
268,71601;8,95725;1875,53037;0,07145
269,01601;8,96751;1875,12934;0,07157
269,31601;8,97720;1874,00747;0,07169
269,61601;8,98745;1874,55583;0,07181
269,91601;8,99686;1873,33692;0,07192
270,21601;9,00740;1874,05758;0,07205
270,51601;9,01737;1874,14847;0,07216
270,81601;9,02734;1873,39652;0,07228
271,11601;9,03646;1872,68835;0,07239
271,41601;9,04614;1872,01146;0,07250
271,71601;9,05754;1873,46227;0,07263
272,01601;9,06666;1871,99898;0,07274
272,31601;9,07777;1872,99233;0,07287
272,61601;9,08717;1871,71064;0,07299
272,91601;9,09771;1872,43763;0,07311
273,21601;9,10740;1871,88610;0,07322
273,51601;9,11708;1871,82352;0,07334
273,81601;9,12763;1872,11484;0,07346
274,11601;9,13646;1870,15031;0,07357
274,41601;9,14700;1870,79888;0,07369
274,71601;9,15697;1871,09653;0,07381
275,01601;9,16637;1869,54867;0,07392
275,31601;9,17720;1870,81769;0,07405
275,61601;9,18688;1869,47342;0,07416
275,91601;9,19771;1871,20941;0,07428
276,21601;9,20711;1871,12466;0,07440
276,51601;9,21708;1869,36371;0,07452
276,81601;9,22706;1869,55798;0,07464
277,11601;9,23703;1869,78672;0,07475
277,41601;9,24757;1869,49857;0,07488
277,71601;9,25612;1867,56197;0,07498
278,01601;9,26666;1867,39918;0,07510
278,31601;9,27634;1867,24868;0,07522
278,61601;9,28717;1867,54633;0,07534
278,91601;9,29856;1869,25717;0,07548
279,21601;9,30683;1867,64654;0,07558
279,51601;9,31794;1868,77158;0,07571
279,81601;9,32705;1867,01063;0,07582
280,11601;9,33760;1867,54316;0,07594
280,41601;9,34728;1867,11717;0,07606
280,71601;9,35668;1866,92905;0,07618
281,01601;9,36751;1867,21105;0,07630
281,31601;9,37663;1866,14264;0,07641
281,61601;9,38688;1866,60625;0,07653
281,91601;9,39714;1866,59377;0,07665
282,21601;9,40683;1865,76657;0,07677
282,51601;9,41708;1866,44029;0,07690
282,81601;9,42734;1865,97649;0,07702
283,11601;9,43760;1865,78855;0,07714
283,41601;9,44643;1864,21555;0,07725
283,71601;9,45725;1865,07087;0,07737
284,01601;9,46666;1864,37853;0,07748
284,31601;9,47663;1864,03058;0,07760
284,61601;9,48603;1863,30993;0,07772
284,91601;9,49543;1862,45143;0,07783
285,21601;9,50740;1864,54449;0,07797
285,51601;9,51765;1865,36871;0,07809
285,81601;9,52819;1864,05890;0,07822
286,11601;9,53788;1863,86462;0,07833
286,41601;9,54728;1863,27547;0,07844
286,71601;9,55811;1863,45410;0,07857
287,01601;9,56723;1863,27230;0,07868
287,31601;9,57748;1863,26932;0,07881
287,61601;9,58717;1862,99346;0,07892
287,91601;9,59686;1862,48906;0,07903
288,21601;9,60740;1863,60758;0,07917
288,51601;9,61737;1862,88692;0,07929
288,81601;9,62762;1861,53967;0,07941
289,11601;9,63703;1861,35788;0,07952
289,41601;9,64757;1861,84980;0,07965
289,71601;9,65668;1861,37985;0,07976
290,01601;9,66666;1860,33007;0,07987
290,31601;9,67691;1860,83447;0,08000
290,61601;9,68660;1860,10133;0,08011
290,91601;9,69686;1860,08886;0,08024
291,21601;9,70569;1857,95184;0,08034
291,51601;9,71594;1858,53783;0,08046
291,81601;9,72706;1859,94469;0,08059
292,11601;9,73617;1858,25583;0,08071
292,41601;9,74842;1860,54632;0,08085
292,71601;9,75697;1858,61606;0,08095
293,01601;9,76780;1858,45625;0,08108
293,31601;9,77720;1858,67567;0,08119
293,61601;9,78717;1857,35952;0,08131
293,91601;9,79771;1858,22751;0,08143
294,21601;9,80654;1856,66084;0,08154
294,51601;9,81794;1857,56646;0,08168
294,81601;9,82734;1857,25000;0,08179
295,11601;9,83731;1857,28129;0,08191
295,41601;9,84728;1856,77055;0,08203
295,71601;9,85725;1856,85828;0,08215
296,01601;9,86780;1856,47588;0,08227
296,31601;9,87691;1855,30726;0,08239
296,61601;9,88745;1856,32873;0,08251
296,91601;9,89657;1854,84029;0,08262
297,21601;9,90711;1855,88058;0,08275
297,51601;9,91708;1855,73641;0,08287
297,81601;9,92620;1853,94417;0,08298
298,11601;9,93703;1855,65818;0,08311
298,41601;9,94643;1854,28262;0,08322
298,71601;9,95811;1854,64602;0,08336
299,01601;9,96751;1854,86544;0,08348
299,31601;9,97777;1854,21668;0,08360
299,61601;9,98745;1854,35154;0,08371
299,91601;9,99685;1853,03539;0,08383
300,21601;10,00740;1853,33006;0,08395
300,51601;10,01708;1852,98845;0,08407
300,81601;10,02705;1852,61872;0,08419
301,11601;10,03703;1853,04806;0,08431
301,41601;10,04728;1853,18589;0,08443
301,71601;10,05754;1852,64386;0,08455
302,01601;10,06666;1851,99510;0,08466
302,31601;10,07777;1852,39315;0,08479
302,61601;10,08717;1852,34603;0,08491
302,91601;10,09714;1851,08650;0,08503
303,21601;10,10740;1851,97331;0,08515
303,51601;10,11680;1850,81698;0,08526
303,81601;10,12791;1851,58476;0,08540
304,11601;10,13674;1850,31872;0,08551
304,41601;10,14671;1850,44408;0,08563
304,71601;10,15640;1849,61688;0,08575
305,01601;10,16609;1848,88374;0,08586
305,31601;10,17748;1849,88640;0,08599
305,61601;10,18745;1850,66666;0,08612
305,91601;10,19799;1849,73590;0,08624
306,21601;10,20740;1849,84561;0,08636
306,51601;10,21680;1848,62670;0,08647
306,81601;10,22734;1849,43825;0,08660
307,11601;10,23731;1848,55461;0,08672
307,41601;10,24757;1848,63303;0,08684
307,71601;10,25697;1848,59857;0,08696
308,01601;10,26751;1848,12844;0,08709
308,31601;10,27663;1847,65216;0,08720
308,61601;10,28745;1848,30092;0,08732
308,91601;10,29686;1847,95614;0,08744
309,21601;10,30654;1846,13559;0,08756
309,51601;10,31765;1848,23815;0,08769
309,81601;10,32620;1846,40829;0,08780
310,11601;10,33731;1847,60205;0,08793
310,41601;10,34728;1846,81565;0,08805
310,71601;10,35697;1846,10747;0,08816
311,01601;10,36694;1846,84377;0,08829
311,31601;10,37606;1845,22066;0,08840
311,61601;10,38660;1845,33354;0,08853
311,91601;10,39685;1845,90071;0,08866
312,21601;10,40740;1845,49019;0,08877
312,51601;10,41822;1846,10430;0,08891
312,81601;10,42762;1845,42760;0,08903
313,11601;10,43817;1845,74407;0,08915
313,41601;10,44728;1844,91668;0,08927
313,71601;10,45754;1844,70061;0,08939
314,01601;10,46722;1844,51565;0,08951
314,31601;10,47748;1844,71626;0,08963
314,61601;10,48717;1844,20552;0,08975
314,91601;10,49657;1843,15257;0,08987
315,21601;10,50740;1844,00491;0,09000
315,51601;10,51680;1843,28109;0,09012
315,81602;10,52677;1843,60705;0,09024
316,11602;10,53731;1843,64151;0,09036
316,41602;10,54643;1842,50399;0,09048
316,71602;10,55754;1843,14325;0,09061
317,01602;10,56666;1842,05901;0,09072
317,31602;10,57720;1843,32188;0,09085
317,61602;10,58660;1841,63302;0,09097
317,91602;10,59600;1840,84009;0,09108
318,21602;10,60654;1841,10645;0,09121
318,51602;10,61594;1841,51698;0,09132
318,81602;10,62791;1842,05603;0,09146
319,11602;10,63703;1841,73323;0,09158
319,41602;10,64871;1842,61054;0,09171
319,71602;10,65754;1840,85276;0,09182
320,01602;10,66722;1840,88722;0,09194
320,31602;10,67748;1841,39162;0,09206
320,61602;10,68717;1840,70542;0,09218
320,91602;10,69771;1840,65532;0,09231
321,21602;10,70683;1839,18886;0,09242
321,51602;10,71708;1839,56176;0,09254
321,81602;10,72734;1839,51166;0,09266
322,11602;10,73674;1839,02271;0,09278
322,41602;10,74757;1838,91319;0,09291
322,71602;10,75697;1839,36432;0,09302
323,01602;10,76723;1839,55543;0,09315
323,31602;10,77720;1839,22648;0,09327
323,61602;10,78717;1838,55277;0,09339
323,91602;10,79714;1838,38662;0,09352
324,21602;10,80626;1836,95164;0,09363
324,51602;10,81651;1836,83559;0,09375
324,81602;10,82563;1836,37198;0,09387
325,11602;10,83645;1837,54694;0,09399
325,41602;10,84671;1837,38079;0,09412
325,71602;10,85754;1838,09847;0,09425
326,01602;10,86865;1838,14224;0,09437
326,31602;10,87720;1836,83559;0,09448
326,61602;10,88774;1836,68528;0,09461
326,91602;10,89685;1835,72322;0,09472
327,21602;10,90711;1835,77649;0,09484
327,51602;10,91765;1835,81728;0,09497
327,81602;10,92677;1835,69826;0,09508
328,11602;10,93760;1835,90185;0,09521
328,41602;10,94557;1833,42025;0,09531
328,71602;10,95782;1835,71707;0,09545
329,01602;10,96779;1835,67628;0,09558
329,31602;10,97691;1834,58589;0,09569
329,61602;10,98745;1835,05267;0,09582
329,91602;10,99657;1833,70858;0,09593
330,21602;11,00768;1834,64531;0,09606
330,51602;11,01680;1834,26943;0,09618
330,81602;11,02705;1833,05051;0,09630
331,11602;11,03617;1832,47384;0,09642
331,41602;11,04614;1832,52413;0,09654
331,71602;11,05697;1834,78333;0,09668
332,01602;11,06694;1834,12209;0,09680
332,31602;11,07862;1834,74254;0,09693
332,61602;11,08774;1832,91268;0,09705
332,91602;11,09771;1833,24162;0,09717
333,21602;11,10711;1832,69642;0,09729
333,51602;11,11680;1831,64980;0,09740
333,81602;11,12762;1832,31719;0,09753
334,11602;11,13674;1830,98242;0,09765
334,41602;11,14757;1832,53661;0,09777
334,71602;11,15697;1831,56524;0,09789
335,01602;11,16637;1830,70041;0,09800
335,31602;11,17777;1831,69991;0,09814
335,61602;11,18745;1831,00440;0,09826
335,91602;11,19742;1830,96044;0,09839
336,21602;11,20711;1831,12025;0,09851
336,51602;11,21651;1830,15205;0,09862
336,81602;11,22705;1829,94530;0,09875
337,11602;11,23703;1830,36197;0,09888
337,41602;11,24700;1830,03619;0,09900
337,71602;11,25554;1829,03036;0,09911
338,01602;11,26637;1829,62250;0,09924
338,31602;11,27691;1829,50664;0,09937
338,61602;11,28688;1829,39693;0,09949
338,91602;11,29828;1829,69142;0,09963
339,21602;11,30768;1829,26841;0,09975
339,51602;11,31851;1829,66013;0,09988
339,81602;11,32705;1829,25593;0,09999
340,11602;11,33731;1829,45635;0,10011
340,41602;11,34728;1828,81095;0,10023
340,71602;11,35697;1828,78897;0,10036
341,01602;11,36779;1828,50081;0,10049
341,31602;11,37691;1828,65746;0,10060
341,61602;11,38717;1827,42290;0,10073
341,91602;11,39771;1828,25327;0,10086
342,21602;11,40740;1828,15604;0,10097
342,51602;11,41765;1827,98058;0,10110
342,81602;11,42705;1827,22230;0,10122
343,11602;11,43731;1827,04683;0,10134
343,41602;11,44643;1826,62383;0,10146
343,71602;11,45782;1827,08129;0,10159
344,01602;11,46637;1825,89367;0,10170
344,31602;11,47606;1824,97874;0,10182
344,61602;11,48631;1825,73386;0,10194
344,91602;11,49571;1825,09478;0,10206
345,21602;11,50711;1826,83058;0,10220
345,51602;11,51737;1827,34132;0,10232
345,81602;11,52791;1826,49530;0,10245
346,11602;11,53845;1827,05317;0,10258
346,41602;11,54728;1825,95011;0,10269
346,71602;11,55754;1825,57721;0,10282
347,01602;11,56694;1824,98824;0,10293
347,31602;11,57748;1825,50829;0,10306
347,61602;11,58774;1825,20747;0,10319
347,91602;11,59742;1824,96626;0,10331
348,21602;11,60711;1825,36114;0,10344
348,51602;11,61708;1824,02004;0,10355
348,81602;11,62762;1824,83159;0,10369
349,11602;11,63702;1824,54325;0,10381
349,41602;11,64757;1824,71238;0,10393
349,71602;11,65640;1823,65328;0,10405
350,01602;11,66665;1822,69141;0,10417
350,31602;11,67748;1823,68774;0,10430
350,61602;11,68688;1822,72270;0,10442
350,91602;11,69685;1823,96360;0,10455
351,21602;11,70569;1821,42854;0,10466
351,51602;11,71623;1821,77648;0,10478
351,81602;11,72705;1822,55972;0,10492
352,11602;11,73674;1822,38743;0,10503
352,41602;11,74785;1822,35297;0,10517
352,71602;11,75697;1821,99888;0,10528
353,01602;11,76751;1821,72321;0,10540
353,31602;11,77748;1821,68875;0,10553
353,61602;11,78660;1820,10308;0,10564
353,91602;11,79771;1821,93313;0,10577
354,21602;11,80682;1820,93345;0,10589
354,51602;11,81794;1821,33764;0,10603
354,81602;11,82705;1821,50695;0,10614
355,11602;11,83731;1820,23793;0,10626
355,41602;11,84728;1821,16218;0,10639
355,71602;11,85782;1820,40390;0,10652
356,01602;11,86779;1820,13139;0,10664
356,31602;11,87691;1819,18200;0,10676
356,61602;11,88745;1820,15020;0,10688
356,91602;11,89685;1819,99970;0,10700
357,21602;11,90739;1819,87751;0,10713
357,51602;11,91708;1819,94028;0,10725
357,81602;11,92563;1818,42986;0,10736
358,11602;11,93674;1818,35778;0,10749
358,41602;11,94642;1818,60235;0,10761
358,71602;11,95782;1819,54857;0,10775
359,01602;11,96751;1819,23211;0,10787
359,31602;11,97662;1817,83773;0,10798
359,61602;11,98774;1818,29203;0,10812
359,91602;11,99714;1817,40522;0,10824
360,21602;12,00768;1818,27638;0,10837
360,51602;12,01680;1817,82823;0,10849
360,81602;12,02734;1817,98190;0,10862
361,11602;12,03702;1817,47731;0,10874
361,41602;12,04728;1817,74683;0,10886
361,71602;12,05725;1817,15470;0,10899
362,01602;12,06694;1816,56554;0,10911
362,31602;12,07748;1817,13272;0,10924
362,61602;12,08688;1816,18016;0,10936
362,91602;12,09742;1817,39908;0,10949
363,21602;12,10739;1816,19264;0,10962
363,29402;12,10996;1018,32850;0,12767