File: 02_Appendices/Appendix_C_Experimental_Data/C_1_Materials_Tests/C_1_1_Tensile_tests/C_1_1_1_Quantun_70_30/Specimen_RawData_1.csv
Text Inputs : Specimen label;"1"
Dimension : Length;50,00000;mm
Dimension : Final length;100,00000;mm
Test : Rate 1;2,00000;mm/min
General : Unique Identifier;"{271946EA-5679-4D82-B7F6-AA7F2B3AF98A}"

Time;Extension;Load;Strain 1
(sec);(mm);(N);(mm/mm)
0,00000;-0,00028;9,24207;0,00029
0,30000;0,00484;9,43633;0,00029
0,60000;0,00997;9,52095;0,00030
0,90000;0,01795;13,13378;0,00032
1,20000;0,03561;30,90031;0,00046
1,50000;0,04929;43,06739;0,00056
1,80000;0,05983;52,03839;0,00064
2,10000;0,07037;59,58995;0,00071
2,40000;0,07977;61,57655;0,00075
2,70000;0,09031;63,29053;0,00077
3,00000;0,09971;64,92618;0,00080
3,30000;0,10997;65,82547;0,00082
3,60000;0,12023;66,83443;0,00083
3,90000;0,13020;67,33577;0,00085
4,20000;0,13989;68,04080;0,00086
4,50000;0,14986;69,42264;0,00087
4,80000;0,15983;69,99919;0,00089
5,10000;0,16980;71,01442;0,00090
5,40000;0,17949;71,67244;0,00092
5,70000;0,18917;71,84792;0,00093
6,00000;0,19886;72,53727;0,00093
6,30000;0,20940;73,38643;0,00095
6,60000;0,21909;76,19711;0,00096
6,90000;0,23048;75,73336;0,00098
7,20000;0,23989;77,40034;0,00099
7,50000;0,25014;77,26874;0,00099
7,80000;0,25983;77,67609;0,00100
8,10000;0,26923;78,18997;0,00100
8,40000;0,28034;77,63848;0,00101
8,70000;0,28974;79,02032;0,00102
9,00000;0,30000;78,72578;0,00102
9,30000;0,30940;79,95722;0,00103
9,60000;0,31937;80,67477;0,00103
9,90000;0,33020;81,19493;0,00104
10,20000;0,33989;80,89411;0,00104
10,50000;0,35043;81,84040;0,00105
10,80000;0,35954;82,39188;0,00106
11,10000;0,37037;84,44429;0,00107
11,40000;0,37977;84,81089;0,00108
11,70000;0,39003;85,98906;0,00109
12,00000;0,40000;86,34627;0,00110
12,30000;0,40883;87,61531;0,00111
12,60000;0,41966;90,06565;0,00113
12,90000;0,42934;91,30961;0,00115
13,20000;0,43989;93,95423;0,00117
13,50000;0,45014;94,52138;0,00119
13,80000;0,46011;98,61364;0,00122
14,10000;0,47065;102,13247;0,00125
14,40000;0,47977;106,66967;0,00129
14,70000;0,49003;112,13123;0,00134
15,00000;0,49971;119,37885;0,00140
15,30000;0,50969;125,61750;0,00147
15,60000;0,51994;133,15339;0,00153
15,90000;0,52934;139,31997;0,00159
16,20000;0,53932;145,49908;0,00165
16,50000;0,54957;153,06630;0,00171
16,80000;0,56011;159,25795;0,00178
17,10000;0,57008;166,22043;0,00184
17,40000;0,58006;171,20257;0,00190
17,70000;0,59003;178,26845;0,00196
18,00000;0,59971;183,44173;0,00202
18,30000;0,61026;189,83391;0,00208
18,60000;0,61937;195,48661;0,00214
18,90000;0,62934;200,49382;0,00219
19,20000;0,63960;207,55343;0,00226
19,50000;0,64900;213,64167;0,00232
19,80000;0,66011;221,01463;0,00239
20,10000;0,67008;227,21882;0,00245
20,40000;0,68034;233,14098;0,00251
20,70000;0,69060;238,36440;0,00258
21,00000;0,70028;244,48712;0,00263
21,30000;0,71026;249,65727;0,00270
21,60000;0,71966;256,66049;0,00275
21,90000;0,72991;261,90269;0,00281
22,20000;0,73989;267,61179;0,00287
22,50000;0,74986;272,68168;0,00293
22,80000;0,75954;277,70144;0,00299
23,10000;0,76980;283,64554;0,00305
23,40000;0,78006;290,43255;0,00311
23,70000;0,78974;295,99124;0,00317
24,00000;0,80000;302,76885;0,00324
24,30000;0,80940;307,92018;0,00331
24,60000;0,81937;315,00487;0,00337
24,90000;0,82991;322,18040;0,00345
25,20000;0,83932;327,31923;0,00351
25,50000;0,84957;334,06236;0,00358
25,80000;0,85869;339,52706;0,00364
26,10000;0,86951;347,43268;0,00372
26,40000;0,88006;353,42693;0,00379
26,70000;0,89003;360,44579;0,00386
27,00000;0,90028;365,72248;0,00393
27,30000;0,90997;372,07394;0,00400
27,60000;0,92023;378,55702;0,00407
27,90000;0,93020;384,48232;0,00413
28,20000;0,94017;391,42598;0,00420
28,50000;0,94986;395,22056;0,00427
28,80000;0,96011;402,15482;0,00433
29,10000;0,97037;408,27128;0,00440
29,40000;0,97977;414,75748;0,00447
29,70000;0,99003;420,96162;0,00454
30,00000;1,00000;426,16311;0,00460
30,30000;1,01026;431,88161;0,00467
30,60000;1,02051;438,10774;0,00474
30,90000;1,02963;442,80477;0,00480
31,20000;1,03988;450,15579;0,00487
31,50000;1,04929;453,15446;0,00493
31,80000;1,05983;460,81883;0,00500
32,10000;1,06951;465,96704;0,00507
32,40000;1,07920;470,41648;0,00513
32,70000;1,08946;476,35119;0,00520
33,00000;1,09943;481,04506;0,00526
33,30000;1,10997;487,91668;0,00533
33,60000;1,11966;493,15575;0,00539
33,90000;1,13020;498,87425;0,00545
34,20000;1,13988;504,06950;0,00552
34,50000;1,14957;507,90482;0,00557
34,80000;1,15983;513,80191;0,00564
35,10000;1,16951;519,15068;0,00570
35,40000;1,18006;524,98826;0,00576
35,70000;1,19003;529,89833;0,00582
36,00000;1,20028;534,60784;0,00589
36,30000;1,21026;539,82814;0,00595
36,60000;1,21966;544,91684;0,00601
36,90000;1,23048;550,41914;0,00607
37,20000;1,23988;554,92185;0,00613
37,50000;1,25014;559,84133;0,00619
37,80000;1,26011;564,04951;0,00625
38,10000;1,26951;570,03121;0,00631
38,40000;1,28006;574,82538;0,00637
38,70000;1,28946;578,75467;0,00643
39,00000;1,29943;584,14731;0,00649
39,30000;1,30912;588,30539;0,00655
39,60000;1,31966;594,64430;0,00662
39,90000;1,32991;600,91428;0,00668
40,20000;1,33988;604,99399;0,00674
40,50000;1,35014;609,07686;0,00680
40,80000;1,35983;613,79578;0,00686
41,10000;1,36980;619,76183;0,00692
41,40000;1,37949;624,27712;0,00698
41,70000;1,38974;628,50406;0,00704
42,00000;1,40000;633,75258;0,00711
42,30000;1,40940;637,02385;0,00716
42,60000;1,42023;643,88295;0,00723
42,90000;1,42934;646,80018;0,00728
43,20000;1,44017;652,82886;0,00735
43,50000;1,45014;657,08719;0,00741
43,80000;1,45954;661,21705;0,00746
44,10000;1,47037;666,66296;0,00753
44,40000;1,47949;669,85278;0,00759
44,70000;1,48974;676,06634;0,00765
45,00000;1,50000;681,11117;0,00771
45,30000;1,50997;685,53556;0,00778
45,60000;1,51966;690,54593;0,00783
45,90000;1,52934;693,79527;0,00789
46,20000;1,53960;698,20713;0,00795
46,50000;1,54929;703,36787;0,00802
46,80000;1,56040;708,04609;0,00808
47,10000;1,57008;713,27891;0,00814
47,40000;1,58006;717,42130;0,00820
47,70000;1,59003;721,47283;0,00826
48,00000;1,60000;727,60805;0,00832
48,30000;1,61025;731,53423;0,00838
48,60000;1,61966;736,44435;0,00844
48,90000;1,62991;741,11000;0,00851
49,20000;1,63988;744,85443;0,00857
49,50000;1,64929;748,00667;0,00862
49,80000;1,66011;754,34875;0,00869
50,10000;1,66951;759,24313;0,00875
50,40000;1,67977;763,16930;0,00881
50,70000;1,69003;768,15146;0,00888
51,00000;1,69943;771,88024;0,00893
51,30000;1,70997;778,14395;0,00900
51,60000;1,71994;782,01061;0,00906
51,90000;1,72991;787,49098;0,00912
52,20000;1,73931;790,65887;0,00918
52,50000;1,74957;795,67544;0,00925
52,80000;1,75954;799,99333;0,00931
53,10000;1,76923;805,74937;0,00937
53,40000;1,78005;810,11429;0,00944
53,70000;1,79003;814,51358;0,00949
54,00000;1,80085;818,82831;0,00956
54,30000;1,80968;822,68557;0,00962
54,60000;1,82023;828,47932;0,00968
54,90000;1,83020;832,26450;0,00974
55,20000;1,83988;836,72330;0,00980
55,50000;1,85014;840,93465;0,00987
55,80000;1,85926;844,57258;0,00992
56,10000;1,87008;850,52922;0,00999
56,40000;1,87977;854,50867;0,01005
56,70000;1,88974;858,64477;0,01012
57,00000;1,90000;863,38567;0,01018
57,30000;1,90968;867,62207;0,01024
57,60000;1,91966;872,34415;0,01031
57,90000;1,92991;876,99099;0,01037
58,20000;1,94017;881,07381;0,01043
58,50000;1,94986;885,12534;0,01049
58,80000;1,95954;889,40244;0,01055
59,10000;1,96923;893,61379;0,01062
59,40000;1,97892;896,78792;0,01068
59,70000;1,98974;902,39365;0,01075
60,00000;1,99971;907,24416;0,01081
60,30000;2,01054;912,35479;0,01088
60,60000;2,02080;917,05183;0,01095
60,90000;2,02991;919,98782;0,01101
61,20000;2,04045;925,48383;0,01108
61,50000;2,04957;928,38854;0,01113
61,80000;2,06040;932,75653;0,01120
62,10000;2,07008;937,99876;0,01127
62,40000;2,07977;941,39539;0,01133
62,70000;2,09003;945,89498;0,01139
63,00000;2,09971;949,04099;0,01145
63,30000;2,11025;954,80336;0,01152
63,60000;2,11994;959,54426;0,01158
63,90000;2,13020;963,10060;0,01165
64,20000;2,13988;967,14273;0,01171
64,50000;2,14985;971,88363;0,01178
64,80000;2,15983;975,77535;0,01184
65,10000;2,16951;980,32197;0,01190
65,40000;2,17948;984,29518;0,01197
65,70000;2,18917;987,59150;0,01203
66,00000;2,19914;991,62739;0,01210
66,30000;2,20940;997,00121;0,01216
66,60000;2,21937;1001,70756;0,01223
66,90000;2,22991;1006,27923;0,01230
67,20000;2,23988;1010,30255;0,01236
67,50000;2,25014;1015,06226;0,01243
67,80000;2,26011;1018,50592;0,01249
68,10000;2,26951;1022,14068;0,01255
68,40000;2,27977;1026,62463;0,01262
68,70000;2,28946;1030,04314;0,01269
69,00000;2,29971;1034,74958;0,01275
69,30000;2,30968;1038,66318;0,01282
69,60000;2,31966;1042,92464;0,01288
69,90000;2,33020;1047,45878;0,01295
70,20000;2,34017;1051,84549;0,01302
70,50000;2,35014;1056,08189;0,01309
70,80000;2,35983;1059,71042;0,01315
71,10000;2,37008;1063,97504;0,01322
71,40000;2,37977;1068,03905;0,01328
71,70000;2,39003;1071,76788;0,01335
72,00000;2,39971;1075,51226;0,01342
72,30000;2,40911;1079,42279;0,01348
72,60000;2,41966;1084,07279;0,01355
72,90000;2,42963;1087,86738;0,01361
73,20000;2,43988;1092,16329;0,01368
73,50000;2,45042;1096,95122;0,01375
73,80000;2,46040;1100,00316;0,01382
74,10000;2,47065;1104,46205;0,01389
74,40000;2,47977;1107,48895;0,01395
74,70000;2,48974;1111,68772;0,01401
75,00000;2,49971;1116,06512;0,01408
75,30000;2,50968;1119,69989;0,01415
75,60000;2,51994;1123,35654;0,01422
75,90000;2,52963;1127,67126;0,01428
76,20000;2,53960;1131,53169;0,01435
76,50000;2,54985;1135,92474;0,01442
76,80000;2,56011;1139,53762;0,01449
77,10000;2,57008;1143,71758;0,01455
77,40000;2,57977;1147,78159;0,01462
77,70000;2,58974;1151,51349;0,01468
78,00000;2,59943;1154,94151;0,01475
78,30000;2,60997;1159,72310;0,01482
78,60000;2,61937;1162,38650;0,01489
78,90000;2,62934;1166,86728;0,01496
79,20000;2,63988;1170,68067;0,01503
79,50000;2,64928;1174,51912;0,01509
79,80000;2,65983;1178,64897;0,01517
80,10000;2,67008;1182,32761;0,01523
80,40000;2,68062;1186,95255;0,01530
80,70000;2,69031;1190,71892;0,01537
81,00000;2,69971;1193,50767;0,01544
81,30000;2,70997;1198,06053;0,01551
81,60000;2,71937;1200,23834;0,01557
81,90000;2,72991;1205,57137;0,01564
82,20000;2,73988;1209,51636;0,01571
82,50000;2,75014;1213,11042;0,01578
82,80000;2,75954;1216,87995;0,01585
83,10000;2,76980;1220,00705;0,01592
83,40000;2,78005;1224,05551;0,01599
83,70000;2,78917;1226,96646;0,01605
84,00000;2,80000;1231,00858;0,01612
84,30000;2,80911;1233,63435;0,01618
84,60000;2,81937;1237,84253;0,01626
84,90000;2,82963;1242,17607;0,01633
85,20000;2,83903;1244,70787;0,01639
85,50000;2,84985;1249,77464;0,01647
85,80000;2,85869;1252,00879;0,01653
86,10000;2,86980;1256,39867;0,01660
86,40000;2,87948;1259,70133;0,01667
86,70000;2,88946;1263,38620;0,01674
87,00000;2,90028;1267,65398;0,01682
87,30000;2,90997;1270,32045;0,01689
87,60000;2,92022;1274,39080;0,01696
87,90000;2,92991;1277,73732;0,01703
88,20000;2,93988;1281,40338;0,01710
88,50000;2,95042;1285,46748;0,01717
88,80000;2,96011;1289,13354;0,01724
89,10000;2,97037;1292,37985;0,01731
89,40000;2,97948;1295,34714;0,01738
89,70000;2,99031;1299,69632;0,01745
90,00000;3,00000;1302,68568;0,01752
90,30000;3,01025;1306,22331;0,01759
90,60000;3,02022;1309,99591;0,01767
90,90000;3,02963;1313,03845;0,01773
91,20000;3,03988;1317,02730;0,01781
91,50000;3,04957;1319,85052;0,01788
91,80000;3,06011;1323,56370;0,01796
92,10000;3,06951;1326,95399;0,01803
92,40000;3,07948;1329,62996;0,01809
92,70000;3,08974;1333,74734;0,01816
93,00000;3,09914;1336,54857;0,01823
93,30000;3,10997;1340,23353;0,01831
93,60000;3,11937;1343,10061;0,01838
93,90000;3,13020;1347,04243;0,01845
94,20000;3,13988;1350,34509;0,01852
94,50000;3,14985;1352,94897;0,01859
94,80000;3,15954;1356,55859;0,01866
95,10000;3,16980;1360,46913;0,01873
95,40000;3,18034;1363,38640;0,01880
95,70000;3,19002;1365,96514;0,01887
96,00000;3,20000;1369,68773;0,01895
96,30000;3,20968;1372,23518;0,01901
96,60000;3,21965;1375,71953;0,01908
96,90000;3,23020;1379,62066;0,01916
97,20000;3,23960;1382,44387;0,01923
97,50000;3,25014;1384,99131;0,01930
97,80000;3,26011;1388,58221;0,01937
98,10000;3,26980;1391,57465;0,01944
98,40000;3,28005;1395,30031;0,01952
98,70000;3,28945;1397,52822;0,01958
99,00000;3,29943;1401,10971;0,01965
99,30000;3,30911;1403,31564;0,01972
99,60000;3,31965;1406,72168;0,01979
99,90000;3,32963;1410,65409;0,01987
100,20000;3,33960;1412,96973;0,01994
100,50000;3,35014;1416,56371;0,02001
100,80000;3,35983;1419,24592;0,02009
101,10000;3,37037;1422,04724;0,02016
101,40000;3,37948;1424,57280;0,02023
101,70000;3,39002;1428,13548;0,02030
102,00000;3,40000;1431,07772;0,02038
102,30000;3,40968;1434,04827;0,02045
102,60000;3,42051;1437,47618;0,02053
102,90000;3,42934;1439,03038;0,02059
103,20000;3,43988;1442,70901;0,02067
103,50000;3,45014;1445,98978;0,02074
103,80000;3,46011;1448,99469;0,02081
104,10000;3,47037;1451,83047;0,02089
104,40000;3,47977;1454,13037;0,02096
104,70000;3,49002;1457,36411;0,02104
105,00000;3,50028;1460,22802;0,02111
105,30001;3,50997;1463,02618;0,02118
105,60001;3,51965;1465,60809;0,02125
105,90001;3,52906;1467,70123;0,02132
106,20001;3,53960;1471,14173;0,02140
106,50001;3,54928;1473,75502;0,02147
106,80001;3,56011;1477,81596;0,02155
107,10001;3,57037;1479,86524;0,02162
107,40001;3,58062;1482,35317;0,02169
107,70001;3,59031;1485,36125;0,02177
108,00001;3,60000;1487,89929;0,02184
108,30001;3,61025;1490,78518;0,02191
108,60001;3,61937;1493,34203;0,02198
108,90001;3,62991;1496,38150;0,02206
109,20001;3,63988;1498,81616;0,02213
109,50001;3,64928;1500,78712;0,02220
109,80001;3,65983;1504,03958;0,02228
110,10001;3,66951;1506,63722;0,02235
110,40001;3,68005;1509,46043;0,02243
110,70001;3,69031;1512,54367;0,02251
111,00001;3,69971;1514,68385;0,02258
111,30001;3,70968;1516,97127;0,02265
111,60001;3,71937;1519,34009;0,02273
111,90001;3,72963;1522,53304;0,02280
112,20001;3,73931;1524,47894;0,02287
112,50001;3,74871;1526,46555;0,02295
112,80001;3,75897;1529,81831;0,02302
113,10001;3,76923;1532,43784;0,02310
113,40001;3,78062;1535,97547;0,02319
113,70001;3,78974;1538,45716;0,02326
114,00001;3,80057;1540,88242;0,02334
114,30001;3,80968;1542,88467;0,02341
114,60001;3,82022;1545,93978;0,02349
114,90001;3,83020;1548,06105;0,02356
115,20001;3,83960;1550,41739;0,02363
115,50001;3,85014;1553,11525;0,02371
115,80001;3,85954;1555,64398;0,02378
116,10001;3,86951;1557,67445;0,02386
116,40001;3,88005;1560,35973;0,02394
116,70001;3,88974;1564,13559;0,02402
117,00001;3,90028;1566,26943;0,02410
117,30001;3,91025;1568,61003;0,02417
117,60001;3,91994;1571,41760;0,02425
117,90001;3,92963;1573,40728;0,02432
118,20001;3,93988;1576,17107;0,02440
118,50001;3,94985;1578,69961;0,02448
118,80001;3,95925;1580,79602;0,02455
119,10001;3,96923;1583,50952;0,02463
119,40001;3,97891;1584,67833;0,02471
119,70001;3,98974;1588,94602;0,02479
120,00001;4,00028;1590,94501;0,02487
120,30001;4,01054;1594,20706;0,02496
120,60001;4,02079;1595,57313;0,02504
120,90001;4,02963;1597,89510;0,02510
121,20001;4,04017;1600,94704;0,02519
121,50001;4,04957;1602,53253;0,02526
121,80001;4,05982;1604,62242;0,02534
122,10001;4,07008;1606,86914;0,02542
122,40001;4,07977;1609,29449;0,02550
122,70001;4,09031;1612,04562;0,02559
123,00001;4,09971;1613,52456;0,02566
123,30001;4,11025;1617,03080;0,02574
123,60001;4,11994;1618,81372;0,02582
123,90001;4,13048;1621,17947;0,02590
124,20001;4,13960;1623,34163;0,02598
124,50001;4,14957;1624,95207;0,02605
124,80001;4,15982;1627,43069;0,02614
125,10001;4,16923;1629,30451;0,02622
125,40001;4,17977;1632,68857;0,02630
125,70001;4,18917;1633,34031;0,02637
126,00001;4,19886;1635,83457;0,02645
126,30001;4,20968;1638,71422;0,02654
126,60001;4,21937;1641,33050;0,02662
126,90001;4,23048;1643,31086;0,02671
127,20001;4,23960;1645,48550;0,02678
127,50001;4,24985;1647,26526;0,02686
127,80001;4,26011;1649,66229;0,02695
128,10001;4,26951;1650,91250;0,02702
128,40001;4,28034;1653,83611;0,02711
128,70001;4,28917;1654,20584;0,02718
129,00001;4,29999;1656,94132;0,02727
129,30001;4,30997;1660,09031;0,02735
129,60001;4,31965;1661,19337;0,02743
129,90001;4,33019;1663,20503;0,02752
130,20001;4,33988;1664,93151;0,02760
130,50001;4,35042;1668,38150;0,02769
130,80001;4,36011;1669,93253;0,02777
131,10001;4,37008;1671,61506;0,02785
131,40001;4,37977;1673,84297;0,02793
131,70001;4,39002;1675,48805;0,02802
132,00001;4,39999;1677,71280;0,02810
132,30001;4,40940;1678,92855;0,02818
132,60001;4,41994;1681,61076;0,02827
132,90001;4,42962;1683,68816;0,02835
133,20001;4,44017;1686,35473;0,02844
133,50001;4,45071;1688,40401;0,02853
133,80001;4,46039;1689,41617;0,02861
134,10001;4,47037;1691,92292;0,02869
134,40001;4,47948;1692,31147;0,02877
134,70001;4,49002;1695,81771;0,02886
135,00001;4,49971;1697,38755;0,02894
135,30001;4,50997;1698,75678;0,02902
135,60001;4,51994;1700,96587;0,02911
135,90001;4,52962;1701,88714;0,02919
136,20001;4,53960;1703,76413;0,02928
136,50001;4,54957;1705,65676;0,02936
136,80001;4,55982;1708,01934;0,02945
137,10001;4,56951;1709,05646;0,02953
137,40001;4,58005;1711,03682;0,02962
137,70001;4,58974;1712,29951;0,02970
138,00001;4,59943;1713,45267;0,02978
138,30001;4,60997;1716,04082;0,02987
138,60001;4,61937;1717,38826;0,02996
138,90001;4,62962;1719,73202;0,03004
139,20001;4,63960;1720,48099;0,03013
139,50001;4,64928;1722,52394;0,03021
139,80001;4,65982;1725,53826;0,03031
140,10001;4,66980;1726,61934;0,03039
140,40001;4,68062;1728,08263;0,03048
140,70001;4,69059;1730,31352;0,03057
141,00001;4,69971;1730,60503;0,03065
141,30001;4,70997;1732,27824;0,03074
141,60001;4,71965;1734,14256;0,03082
141,90001;4,73019;1736,32968;0,03092
142,20001;4,73988;1738,38530;0,03101
142,50001;4,74985;1738,97445;0,03109
142,80001;4,75954;1740,92650;0,03118
143,10001;4,76979;1741,37149;0,03127
143,40001;4,78005;1743,13243;0,03135
143,70001;4,78917;1743,43958;0,03144
144,00001;4,79971;1746,61987;0,03153
144,30001;4,80940;1747,40963;0,03161
144,60001;4,81994;1749,54664;0,03171
144,90001;4,83019;1751,48938;0,03180
145,20001;4,83931;1751,84645;0,03188
145,50001;4,84985;1753,75473;0,03197
145,80001;4,85897;1754,26230;0,03205
146,10001;4,86980;1757,74992;0,03215
146,40001;4,87977;1758,75891;0,03224
146,70001;4,89002;1759,87128;0,03233
147,00001;4,90056;1760,92088;0,03243
147,30001;4,91082;1763,32742;0,03252
147,60001;4,92022;1764,86596;0,03261
147,90001;4,93019;1765,76823;0,03270
148,20001;4,94017;1766,53285;0,03279
148,50001;4,95014;1768,56332;0,03288
148,80001;4,96011;1769,74144;0,03297
149,10001;4,97008;1770,81935;0,03306
149,40001;4,97948;1772,97834;0,03315
149,70001;4,98974;1774,55451;0,03325
150,00001;4,99999;1775,50074;0,03334
150,30001;5,00997;1776,66005;0,03343
150,60001;5,02022;1778,11086;0,03352
150,90001;5,02934;1778,69685;0,03361
151,20001;5,03988;1780,71167;0,03371
151,50001;5,04957;1781,46996;0,03380
151,80001;5,05982;1783,54420;0,03389
152,10001;5,06951;1784,32763;0,03398
152,40001;5,07920;1784,26187;0,03407
152,70001;5,08917;1785,76577;0,03416
153,00001;5,09914;1787,00034;0,03425
153,30001;5,10968;1788,69236;0,03435
153,60001;5,11965;1789,95524;0,03445
153,90001;5,13048;1791,45932;0,03454
154,20001;5,13988;1793,01966;0,03463
154,50001;5,14985;1794,10074;0,03472
154,80001;5,15982;1795,18182;0,03482
155,10001;5,16979;1796,08427;0,03491
155,40001;5,18005;1797,32498;0,03501
155,70001;5,18917;1797,77313;0,03509
156,00001;5,20028;1799,41505;0,03520
156,30001;5,20997;1800,64961;0,03529
156,60001;5,21965;1802,16618;0,03538
156,90001;5,23019;1803,17201;0,03549
157,20001;5,23988;1804,55707;0,03558
157,50001;5,25042;1806,18316;0,03568
157,80001;5,26039;1806,25208;0,03577
158,10001;5,26979;1807,09194;0,03587
158,40001;5,28005;1808,32967;0,03597
158,70001;5,28945;1809,17252;0,03606
159,00001;5,29942;1809,96209;0,03615
159,30001;5,30911;1811,11209;0,03625
159,60001;5,31937;1812,29338;0,03634
159,90001;5,33019;1814,25810;0,03645
160,20001;5,34016;1815,34849;0,03654
160,50001;5,35071;1815,66812;0,03664
160,80001;5,35982;1816,78981;0,03674
161,10001;5,37008;1818,16537;0,03684
161,40001;5,37977;1818,64165;0,03693
161,70001;5,39002;1820,21465;0,03703
162,00001;5,39999;1820,79133;0,03713
162,30001;5,40940;1820,69093;0,03722
162,60001;5,42022;1822,77784;0,03733
162,90001;5,42934;1822,56792;0,03742
163,20001;5,44016;1824,88970;0,03752
163,50001;5,45042;1825,52580;0,03762
163,80001;5,45982;1825,96147;0,03771
164,10001;5,47036;1827,57508;0,03782
164,40001;5,47977;1827,86975;0,03791
164,70001;5,49002;1828,43991;0,03801
165,00001;5,49999;1829,37067;0,03811
165,30001;5,50968;1830,07251;0,03821
165,60001;5,51965;1830,73040;0,03831
165,90001;5,52905;1830,89655;0,03840
166,20001;5,53988;1832,61372;0,03851
166,50001;5,54957;1833,86710;0,03861
166,80001;5,56039;1834,97313;0,03871
167,10001;5,57036;1835,19870;0,03881
167,40001;5,58034;1836,35820;0,03891
167,70001;5,59031;1837,13213;0,03901
168,00001;5,59971;1837,21986;0,03911
168,30001;5,61025;1838,53898;0,03921
168,60001;5,61937;1838,67998;0,03931
168,90001;5,62962;1840,05555;0,03941
169,20001;5,63988;1840,10249;0,03951
169,50001;5,64900;1840,19338;0,03960
169,80001;5,65982;1841,75391;0,03971
170,10001;5,66951;1842,25515;0,03981
170,40001;5,67977;1843,48039;0,03991
170,70001;5,69002;1844,06321;0,04002
171,00001;5,69942;1844,26997;0,04011
171,30001;5,70997;1845,53284;0,04022
171,60001;5,71908;1844,83714;0,04031
171,90001;5,72962;1846,36004;0,04042
172,20001;5,73903;1845,99347;0,04052
172,50001;5,74928;1848,35605;0,04062
172,80001;5,75982;1848,66935;0,04073
173,10001;5,76922;1848,23070;0,04083
173,40001;5,78062;1850,16077;0,04094
173,70001;5,79002;1850,75942;0,04104
174,00001;5,80085;1851,71496;0,04115
174,30001;5,80968;1851,40800;0,04125
174,60001;5,81994;1851,99399;0,04135
174,90001;5,83048;1852,31045;0,04146
175,20001;5,83959;1853,08438;0,04155
175,50001;5,85042;1853,92406;0,04167
175,80001;5,85925;1854,03060;0,04176
176,10001;5,86979;1855,06474;0,04187
176,40001;5,88005;1856,09870;0,04198
176,70001;5,89002;1856,57497;0,04208
177,00001;5,90028;1857,43980;0,04219
177,30001;5,90968;1857,83152;0,04229
177,60001;5,91994;1857,87529;0,04240
177,90001;5,92962;1858,07273;0,04250
178,20001;5,94016;1859,87763;0,04261
178,50001;5,94985;1860,02180;0,04272
178,80001;5,95925;1859,80238;0,04282
179,10001;5,96951;1860,60145;0,04293
179,40001;5,97891;1861,04327;0,04303
179,70001;5,98974;1862,33111;0,04315
180,00001;5,99999;1862,87947;0,04325
180,30001;6,01053;1863,20227;0,04336
180,60001;6,02079;1863,97918;0,04347
180,90001;6,02991;1863,57498;0,04357
181,20001;6,04016;1864,22057;0,04368
181,50001;6,04928;1864,20493;0,04378
181,80001;6,05982;1865,58049;0,04390
182,10001;6,07008;1865,84983;0,04401
182,40001;6,08005;1865,65556;0,04411
182,70001;6,09031;1866,70218;0,04422
183,00001;6,09971;1867,71117;0,04433
183,30001;6,11025;1867,44481;0,04444
183,60001;6,11994;1868,05893;0,04454
183,90001;6,12991;1868,26270;0,04465
184,20001;6,13959;1868,56966;0,04476
184,50001;6,14957;1868,91444;0,04486
184,80001;6,15982;1869,42518;0,04497
185,10001;6,16922;1868,90811;0,04508
185,40001;6,17976;1870,19594;0,04520
185,70001;6,18917;1870,13950;0,04530
186,00001;6,19942;1870,12702;0,04541
186,30001;6,20911;1870,29634;0,04552
186,60001;6,21880;1870,40903;0,04562
186,90001;6,22991;1871,96638;0,04574
187,20001;6,23988;1872,59298;0,04586
187,50001;6,25099;1872,57733;0,04597
187,80001;6,26011;1872,79992;0,04607
188,10001;6,26922;1872,55237;0,04618
188,40001;6,28062;1873,56137;0,04630
188,70001;6,28974;1873,84337;0,04640
189,00001;6,29999;1874,47313;0,04652
189,30001;6,31025;1874,61413;0,04663
189,60001;6,31965;1874,49194;0,04674
189,90001;6,33048;1874,98387;0,04686
190,20001;6,34016;1876,07743;0,04696
190,50001;6,35014;1875,98336;0,04708
190,80001;6,35982;1875,98653;0,04719
191,10001;6,36979;1875,88949;0,04730
191,40001;6,37977;1876,54123;0,04741
191,70001;6,39002;1876,05545;0,04753
192,00001;6,39999;1876,96740;0,04764
192,30001;6,40939;1876,71669;0,04774
192,60001;6,41965;1877,88848;0,04786
192,90001;6,42962;1877,44051;0,04797
193,20001;6,44016;1877,92294;0,04809
193,50001;6,45014;1877,64727;0,04820
193,80001;6,45982;1878,81291;0,04831
194,10001;6,47036;1878,16434;0,04843
194,40001;6,47977;1878,44317;0,04853
194,70001;6,49002;1878,87251;0,04865
195,00001;6,49999;1878,72835;0,04876
195,30001;6,50996;1878,35861;0,04887
195,60001;6,52022;1878,38357;0,04899
195,90001;6,52991;1879,38008;0,04910
196,20001;6,53959;1879,06045;0,04921
196,50001;6,54957;1878,45249;0,04932
196,80001;6,55982;1879,32681;0,04943
197,10001;6,56951;1879,18898;0,04955
197,40001;6,57976;1879,70288;0,04966
197,70001;6,58974;1879,39256;0,04977
198,00001;6,59942;1878,80341;0,04989
198,30001;6,61025;1880,78061;0,05001
198,60001;6,61937;1880,11006;0,05011
198,90001;6,62934;1880,20729;0,05023
199,01201;6,63304;1879,83755;0,05027
199,31201;6,64273;1879,78428;0,05039
199,61201;6,65327;1880,38275;0,05050
199,91201;6,66353;1880,53939;0,05062
200,21201;6,67350;1880,83388;0,05073
200,51201;6,68375;1880,90298;0,05085
200,81201;6,69344;1880,36393;0,05096
201,11201;6,70370;1881,02815;0,05108
201,41201;6,71338;1880,79011;0,05119
201,71201;6,72364;1881,09409;0,05131
202,01201;6,73361;1881,15351;0,05143
202,31201;6,74330;1881,25074;0,05154
202,61201;6,75384;1881,30401;0,05166
202,91201;6,76267;1879,72467;0,05176
203,21201;6,77350;1881,10340;0,05189
203,51201;6,78347;1880,85269;0,05200
203,81201;6,79316;1879,57436;0,05211
204,11201;6,80398;1881,36660;0,05224
204,41201;6,81310;1880,78061;0,05235
204,71201;6,82335;1881,86169;0,05247
205,01201;6,83361;1882,06546;0,05259
205,31201;6,84358;1882,09359;0,05271
205,61201;6,85355;1881,29451;0,05282
205,91201;6,86267;1880,77446;0,05293
206,21201;6,87350;1881,00003;0,05306
206,51201;6,88318;1881,26322;0,05317
206,81201;6,89401;1881,44818;0,05330
207,11201;6,90398;1881,54839;0,05342
207,41201;6,91424;1881,78029;0,05354
207,71201;6,92421;1882,20330;0,05365
208,01201;6,93361;1882,18132;0,05377
208,31201;6,94415;1882,01834;0,05389
208,61201;6,95298;1881,06261;0,05400
208,91201;6,96353;1881,65177;0,05412
209,21201;6,97350;1882,03715;0,05424
209,51201;6,98290;1880,56137;0,05435
209,81201;6,99344;1881,65493;0,05448
210,11201;7,00313;1880,52375;0,05459
210,41201;7,01367;1881,49195;0,05472
210,71201;7,02392;1881,63612;0,05484
211,01201;7,03333;1881,21311;0,05495
211,31201;7,04358;1881,41670;0,05507
211,61201;7,05327;1880,58019;0,05519
211,91201;7,06352;1881,70504;0,05531
212,21201;7,07293;1880,23858;0,05542
212,51201;7,08290;1879,94726;0,05555
212,81201;7,09287;1880,38275;0,05566
213,11201;7,10284;1880,45166;0,05578
213,41201;7,11424;1882,07477;0,05592
213,71201;7,12364;1881,08776;0,05603
214,01201;7,13447;1882,61997;0,05616
214,31201;7,14330;1880,92478;0,05627
214,61201;7,15384;1881,13786;0,05639
214,91201;7,16410;1881,14736;0,05652
215,21201;7,17321;1880,05064;0,05663
215,51201;7,18375;1880,83090;0,05675
215,81201;7,19287;1879,52723;0,05686
216,11201;7,20341;1879,95974;0,05699
216,41201;7,21338;1880,37958;0,05711
216,71201;7,22307;1879,17016;0,05723
217,01201;7,23390;1880,77129;0,05736
217,31201;7,24358;1879,71219;0,05747
217,61201;7,25384;1879,34246;0,05760
217,91201;7,26296;1879,22958;0,05772
218,21201;7,27350;1879,99103;0,05784
218,51201;7,28347;1880,55504;0,05796
218,81201;7,29230;1878,74399;0,05807
219,11201;7,30284;1879,17333;0,05820
219,41201;7,31196;1878,37426;0,05832
219,71201;7,32335;1879,43336;0,05845
220,01201;7,33418;1879,85320;0,05858
220,31201;7,34472;1880,35760;0,05871
220,61201;7,35441;1880,32947;0,05883
220,91201;7,36352;1879,36444;0,05895
221,21201;7,37435;1880,33264;0,05908
221,51201;7,38347;1879,27987;0,05919
221,81201;7,39401;1879,28602;0,05932
222,11201;7,40370;1879,81240;0,05944
222,41201;7,41338;1879,05412;0,05955
222,71201;7,42421;1879,27671;0,05969
223,01201;7,43361;1878,29584;0,05981
223,31201;7,44415;1879,02283;0,05993
223,61201;7,45355;1878,77528;0,06006
223,91201;7,46409;1878,44001;0,06018
224,21201;7,47350;1878,58734;0,06030
224,51201;7,48318;1877,93877;0,06042
224,81201;7,49287;1876,88265;0,06054
225,11201;7,50313;1877,56885;0,06066
225,41201;7,51395;1878,13919;0,06080
225,71201;7,52278;1876,99236;0,06091
226,01201;7,53304;1876,36260;0,06103
226,31201;7,54330;1876,94542;0,06116
226,61201;7,55327;1876,75431;0,06128
226,91201;7,56381;1876,75729;0,06141
227,21201;7,57321;1876,51291;0,06153
227,51201;7,58347;1876,73867;0,06165
227,81201;7,59372;1876,40339;0,06178
228,11201;7,60313;1875,41004;0,06189
228,41201;7,61395;1875,64809;0,06202
228,71201;7,62221;1874,69553;0,06213
229,01201;7,63418;1875,92395;0,06227
229,31201;7,64387;1875,61363;0,06239
229,61201;7,65355;1875,66690;0,06252
229,91201;7,66381;1875,54788;0,06265
230,21201;7,67350;1874,99952;0,06277
230,51201;7,68404;1874,81157;0,06290
230,81201;7,69344;1874,49809;0,06301
231,11201;7,70284;1873,88081;0,06313
231,41201;7,71338;1873,59266;0,06327
231,71201;7,72364;1875,13735;0,06339
232,01201;7,73389;1874,05944;0,06352
232,31201;7,74273;1873,07876;0,06363
232,61201;7,75298;1874,22875;0,06376
232,91201;7,76324;1873,52374;0,06389
233,21201;7,77407;1873,40453;0,06402
233,51201;7,78404;1873,82754;0,06415
233,81201;7,79344;1872,42385;0,06426
234,11201;7,80341;1872,26720;0,06439
234,41201;7,81281;1872,22026;0,06451
234,71201;7,82392;1872,73715;0,06464
235,01201;7,83418;1872,11670;0,06477
235,31201;7,84358;1872,36425;0,06489
235,61201;7,85355;1871,73449;0,06502
235,91201;7,86381;1872,11055;0,06514
236,21201;7,87350;1872,12303;0,06526
236,51201;7,88318;1871,23306;0,06539
236,81201;7,89372;1870,92293;0,06552
237,11201;7,90341;1870,85718;0,06564
237,41201;7,91367;1870,15217;0,06577
237,71201;7,92364;1870,20861;0,06589
238,01201;7,93304;1870,09256;0,06601
238,31201;7,94358;1870,23990;0,06615
238,61201;7,95327;1870,02681;0,06627
238,91201;7,96324;1869,84502;0,06640
239,21201;7,97321;1869,48162;0,06652
239,51201;7,98290;1869,32180;0,06664
239,81201;7,99372;1870,13019;0,06678
240,11201;8,00369;1869,36874;0,06690
240,41201;8,01395;1869,23724;0,06703
240,71201;8,02392;1868,65740;0,06716
241,01201;8,03332;1868,83602;0,06728
241,31201;8,04387;1868,41935;0,06741
241,61201;8,05355;1868,21260;0,06754
241,91201;8,06381;1867,99951;0,06766
242,21201;8,07349;1867,55769;0,06779
242,51201;8,08375;1867,47313;0,06792
242,81201;8,09344;1867,02181;0,06804
243,11201;8,10369;1867,13785;0,06817
243,41201;8,11367;1867,25687;0,06830
243,71201;8,12278;1865,95954;0,06842
244,01201;8,13389;1867,23173;0,06855
244,31201;8,14301;1866,07875;0,06867
244,61201;8,15327;1867,08756;0,06881
244,91201;8,16352;1865,93458;0,06894
245,21201;8,17293;1864,50258;0,06906
245,51201;8,18347;1865,74347;0,06919
245,81201;8,19258;1863,56567;0,06931
246,11201;8,20312;1864,43366;0,06944
246,41201;8,21338;1864,11403;0,06957
246,71201;8,22335;1864,21741;0,06969
247,01201;8,23418;1864,96321;0,06983
247,31201;8,24358;1864,98817;0,06995
247,61201;8,25441;1864,64358;0,07009
247,91201;8,26381;1863,76311;0,07021
248,21201;8,27406;1864,10453;0,07034
248,51201;8,28404;1864,04511;0,07047
248,81201;8,29372;1863,95422;0,07060
249,11201;8,30369;1863,06126;0,07073
249,41201;8,31338;1863,69717;0,07085
249,71201;8,32392;1863,48725;0,07099
250,01201;8,33332;1862,91076;0,07111
250,31201;8,34358;1864,12334;0,07124
250,61201;8,35384;1862,91393;0,07137
250,91201;8,36324;1861,96752;0,07150
251,21201;8,37406;1862,13683;0,07163
251,51201;8,38318;1862,35607;0,07176
251,81201;8,39372;1862,25902;0,07189
252,11201;8,40341;1862,25269;0,07202
252,41201;8,41281;1860,49175;0,07214
252,71201;8,42335;1861,71699;0,07227
253,01201;8,43247;1859,89328;0,07239
253,31201;8,44358;1861,24071;0,07253
253,61201;8,45327;1861,06525;0,07266
253,91201;8,46438;1861,38786;0,07280
254,21201;8,47378;1860,88979;0,07292
254,51201;8,48375;1859,54235;0,07305
254,81201;8,49372;1860,11568;0,07318
255,11201;8,50341;1859,37621;0,07330
255,41201;8,51367;1859,51721;0,07343
255,71201;8,52307;1858,03510;0,07356
256,01201;8,53361;1858,53336;0,07369
256,31201;8,54358;1858,50821;0,07382
256,61201;8,55298;1857,30811;0,07394
256,91201;8,56409;1858,03194;0,07408
257,21201;8,57321;1857,64655;0,07420
257,51201;8,58375;1857,95370;0,07433
257,81201;8,59401;1858,00064;0,07446
258,11201;8,60341;1857,00748;0,07459
258,41201;8,61367;1857,31761;0,07472
258,71201;8,62278;1856,56566;0,07484
259,01201;8,63304;1856,75994;0,07498
259,31201;8,64273;1855,45627;0,07510
259,61201;8,65298;1855,39685;0,07523
259,91201;8,66352;1856,68152;0,07537
260,21201;8,67406;1855,82303;0,07550
260,51201;8,68432;1856,28366;0,07564
260,81201;8,69344;1854,04010;0,07576
261,11201;8,70398;1855,95136;0,07589
261,41201;8,71338;1855,13981;0,07602
261,71201;8,72364;1854,70432;0,07615
262,01201;8,73389;1854,47559;0,07628
262,31201;8,74273;1852,75525;0,07640
262,61201;8,75384;1854,35023;0,07654
262,91201;8,76295;1852,32293;0,07666
263,21201;8,77406;1853,39767;0,07680
263,51201;8,78432;1853,30063;0,07693
263,81201;8,79287;1851,97517;0,07705
264,11201;8,80398;1853,09052;0,07719
264,41201;8,81310;1852,05024;0,07731
264,71201;8,82335;1853,28480;0,07745
265,01201;8,83361;1853,04359;0,07758
265,31201;8,84273;1851,05707;0,07769
265,61201;8,85298;1852,05657;0,07783
265,91201;8,86238;1850,58080;0,07795
266,21201;8,87349;1851,69615;0,07810
266,51201;8,88347;1852,27282;0,07823
266,81201;8,89401;1851,33591;0,07837
267,11201;8,90426;1851,66169;0,07850
267,41201;8,91452;1851,07272;0,07863
267,71201;8,92421;1850,59011;0,07876
268,01201;8,93332;1851,01628;0,07889
268,31201;8,94387;1850,43029;0,07902
268,61201;8,95298;1849,18959;0,07914
268,91201;8,96352;1849,80053;0,07928
269,21201;8,97349;1849,24286;0,07941
269,51201;8,98290;1848,64122;0,07953
269,81201;8,99401;1849,07354;0,07967
270,11201;9,00341;1848,78521;0,07980
270,41201;9,01366;1848,23386;0,07993
270,71201;9,02364;1848,95769;0,08006
271,01201;9,03304;1847,52885;0,08019
271,31201;9,04358;1848,85114;0,08033
271,61201;9,05355;1847,85780;0,08045
271,91201;9,06324;1847,57896;0,08058
272,21201;9,07264;1846,57313;0,08071
272,51201;9,08318;1846,75790;0,08085
272,81201;9,09344;1847,01812;0,08098
273,11201;9,10341;1846,30677;0,08111
273,41201;9,11395;1847,36587;0,08125
273,71201;9,12392;1846,69849;0,08138
274,01201;9,13446;1846,77057;0,08152
274,31201;9,14329;1845,98397;0,08164
274,61201;9,15355;1846,52917;0,08177
274,91201;9,16352;1845,96833;0,08190
275,21201;9,17349;1845,30411;0,08203
275,51201;9,18404;1845,10667;0,08217
275,81201;9,19344;1844,63356;0,08230
276,11201;9,20341;1844,58643;0,08244
276,41201;9,21395;1844,65237;0,08257
276,71201;9,22392;1844,39532;0,08270
277,01201;9,23389;1844,53949;0,08283
277,31201;9,24358;1843,52733;0,08296
277,61201;9,25355;1844,26066;0,08309
277,91201;9,26324;1843,47108;0,08322
278,21201;9,27349;1844,04124;0,08336
278,51201;9,28347;1843,09185;0,08349
278,81201;9,29287;1841,76955;0,08361
279,11201;9,30284;1842,09850;0,08374
279,41201;9,31253;1841,46874;0,08388
279,71201;9,32335;1842,55913;0,08402
280,01201;9,33332;1841,90739;0,08415
280,31201;9,34386;1841,97314;0,08429
280,61201;9,35441;1842,34921;0,08442
280,91201;9,36352;1840,99562;0,08455
281,21201;9,37378;1841,34021;0,08468
281,51201;9,38290;1839,86444;0,08480
281,81201;9,39372;1841,18357;0,08495
282,11201;9,40426;1841,17425;0,08508
282,41201;9,41367;1840,40647;0,08521
282,71201;9,42392;1840,50370;0,08535
283,01201;9,43361;1839,91771;0,08547
283,31201;9,44386;1840,25932;0,08561
283,61201;9,45355;1839,59492;0,08574
283,91201;9,46381;1839,86444;0,08588
284,21201;9,47292;1839,25964;0,08600
284,51201;9,48318;1839,53233;0,08613
284,81201;9,49344;1839,33489;0,08627
285,11201;9,50312;1838,49502;0,08640
285,41201;9,51338;1839,23151;0,08654
285,71201;9,52278;1837,35136;0,08666
286,01201;9,53304;1837,32957;0,08680
286,31201;9,54358;1838,36669;0,08693
286,61201;9,55327;1837,47355;0,08706
286,91201;9,56381;1837,52999;0,08720
287,21201;9,57321;1836,42395;0,08732
287,51201;9,58375;1836,86260;0,08746
287,81201;9,59344;1836,59624;0,08759
288,11201;9,60284;1834,60657;0,08772
288,41201;9,61367;1836,15759;0,08785
288,71201;9,62307;1834,93551;0,08798
289,01201;9,63389;1835,64685;0,08812
289,31201;9,64358;1835,14226;0,08825
289,61201;9,65327;1834,51250;0,08838
289,91201;9,66381;1834,69113;0,08852
290,21201;9,67378;1834,81965;0,08865
290,51201;9,68403;1834,97313;0,08879
290,81201;9,69344;1834,21168;0,08891
291,11201;9,70369;1834,11464;0,08905
291,41201;9,71338;1833,20269;0,08918
291,71201;9,72364;1833,24981;0,08932
292,01201;9,73389;1833,22467;0,08945
292,31201;9,74272;1832,24082;0,08958
292,61201;9,75327;1833,35319;0,08972
292,91201;9,76324;1833,00227;0,08985
293,21201;9,77378;1833,07119;0,08999
293,51201;9,78403;1832,94900;0,09012
293,81201;9,79315;1831,09716;0,09025
294,11201;9,80398;1831,67048;0,09039
294,41201;9,81338;1831,25697;0,09051
294,71201;9,82364;1831,76138;0,09065
295,01201;9,83361;1830,76803;0,09079
295,31201;9,84329;1830,56127;0,09091
295,61201;9,85355;1830,07866;0,09105
295,91201;9,86324;1829,70595;0,09118
296,21201;9,87349;1830,00360;0,09131
296,51201;9,88290;1829,14808;0,09144
296,81201;9,89344;1829,32671;0,09158
297,11201;9,90341;1829,53980;0,09171
297,41201;9,91338;1829,39880;0,09185
297,71201;9,92392;1829,34236;0,09199
298,01201;9,93304;1828,39613;0,09211
298,31201;9,94443;1829,56494;0,09226
298,61201;9,95326;1828,80033;0,09239
298,91201;9,96324;1828,16740;0,09252
299,21201;9,97321;1828,12344;0,09265
299,51201;9,98232;1827,15841;0,09278
299,81201;9,99372;1828,35534;0,09292
300,11201;10,00369;1828,10463;0,09306
300,41201;10,01423;1828,40228;0,09320
300,71201;10,02421;1828,33336;0,09334
301,01201;10,03361;1827,65350;0,09347
301,31201;10,04415;1827,39962;0,09361
301,61201;10,05384;1827,30574;0,09374
301,91201;10,06409;1826,86076;0,09388
302,21201;10,07321;1826,30289;0,09400
302,51201;10,08375;1826,87007;0,09414
302,81201;10,09344;1825,77651;0,09427
303,11201;10,10341;1825,45073;0,09440
303,41201;10,11338;1825,77036;0,09454
303,71201;10,12278;1825,28775;0,09467
304,01201;10,13389;1825,65749;0,09482
304,31201;10,14301;1824,20984;0,09495
304,61201;10,15326;1825,06833;0,09508
304,91201;10,16352;1824,89920;0,09522
305,21201;10,17264;1823,19768;0,09535
305,51201;10,18318;1824,54828;0,09549
305,81201;10,19230;1823,55177;0,09561
306,11201;10,20284;1823,90902;0,09575
306,41201;10,21309;1823,92150;0,09589
306,71201;10,22335;1823,56127;0,09602
307,01201;10,23475;1824,10646;0,09617
307,31201;10,24415;1823,76802;0,09630
307,61201;10,25412;1824,07815;0,09644
307,91201;10,26352;1823,14124;0,09657
308,21201;10,27378;1823,34501;0,09671
308,51201;10,28403;1822,86557;0,09685
308,81201;10,29401;1822,65881;0,09698
309,11201;10,30369;1822,82794;0,09712
309,41201;10,31309;1822,66496;0,09725
309,71201;10,32392;1822,53662;0,09739
310,01201;10,33361;1822,06351;0,09753
310,31201;10,34415;1822,48950;0,09767
310,61201;10,35383;1822,46771;0,09781
310,91201;10,36352;1821,68745;0,09794
311,21201;10,37378;1822,09164;0,09808
311,51201;10,38318;1821,23929;0,09821
311,81201;10,39372;1822,13541;0,09835
312,11201;10,40284;1820,87906;0,09848
312,41201;10,41252;1820,06750;0,09861
312,71201;10,42278;1820,69410;0,09875
313,01201;10,43275;1819,25278;0,09889
313,31201;10,44386;1821,12344;0,09904
313,61201;10,45355;1820,42457;0,09917
313,91201;10,46438;1820,36515;0,09931
314,21201;10,47378;1819,97977;0,09945
314,51201;10,48346;1819,74154;0,09958
314,81201;10,49372;1818,68561;0,09972
315,11201;10,50312;1818,40993;0,09985
315,41201;10,51395;1819,36864;0,10000
315,71201;10,52335;1818,16537;0,10013
316,01202;10,53361;1818,98326;0,10027
316,31202;10,54386;1818,46004;0,10041
316,61202;10,55355;1818,52896;0,10055
316,91202;10,56438;1818,70759;0,10069
317,21202;10,57378;1817,77999;0,10083
317,51202;10,58375;1817,74553;0,10097
317,81202;10,59372;1817,76751;0,10111
318,11202;10,60341;1817,46986;0,10125
318,41202;10,61395;1816,81179;0,10139
318,71202;10,62278;1815,07580;0,10152
319,01202;10,63304;1816,49532;0,10166
319,31202;10,64301;1815,36097;0,10180
319,61202;10,65326;1816,02221;0,10194
319,91202;10,66381;1816,34501;0,10209
320,21202;10,67378;1815,91883;0,10222
320,51202;10,68432;1815,63683;0,10237
320,81202;10,69344;1814,95361;0,10250
321,11202;10,70369;1814,91617;0,10264
321,41202;10,71309;1814,12324;0,10278
321,71202;10,72307;1814,09195;0,10291
322,01202;10,73332;1813,63449;0,10305
322,31202;10,74301;1812,15554;0,10319
322,61202;10,75383;1813,40575;0,10333
322,91202;10,76295;1812,30586;0,10346
323,21202;10,77378;1812,94829;0,10361
323,51202;10,78403;1812,94195;0,10375
323,81202;10,79344;1812,39061;0,10388
324,11202;10,80398;1811,37528;0,10402
324,41202;10,81309;1810,41658;0,10415
324,71202;10,82335;1811,06515;0,10429
325,01202;10,83361;1811,11842;0,10443
325,31202;10,84329;1810,74236;0,10457
325,61202;10,85298;1810,17518;0,10471
325,91202;10,86267;1809,29154;0,10484
326,21202;10,87349;1809,86505;0,10499
326,26802;10,87577;1041,11042;0,10939