File: 02_Appendices/Appendix_C_Experimental_Data/C_1_Materials_Tests/C_1_1_Tensile_tests/C_1_1_1_Quantun_70_30/Specimen_RawData_3.csv
Text Inputs : Specimen label;"1"
Dimension : Length;50,00000;mm
Dimension : Final length;100,00000;mm
Test : Rate 1;2,00000;mm/min
General : Unique Identifier;"{F7CA26C4-7B14-46D9-A42B-F316DA7B197D}"

Time;Extension;Load;Strain 1
(sec);(mm);(N);(mm/mm)
0,00000;0,00000;6,63855;0,00008
0,30000;0,00171;6,95189;0,00007
0,60000;0,01681;22,46235;0,00015
0,90000;0,02991;34,63257;0,00026
1,20000;0,03989;42,22799;0,00034
1,50000;0,05014;51,13633;0,00041
1,80000;0,06040;58,99182;0,00049
2,10000;0,06980;67,38941;0,00056
2,40000;0,08034;74,68401;0,00064
2,70000;0,09003;79,47816;0,00070
3,00000;0,09971;86,06463;0,00077
3,30000;0,10997;92,20927;0,00084
3,60000;0,11994;94,97295;0,00088
3,90000;0,13020;94,94475;0,00091
4,20000;0,13960;95,78137;0,00092
4,50000;0,14957;96,83107;0,00094
4,80000;0,15897;96,66187;0,00095
5,10000;0,16980;97,99358;0,00097
5,40000;0,17949;97,26034;0,00098
5,70000;0,19003;98,06877;0,00099
6,00000;0,20057;98,09698;0,00100
6,30000;0,20940;98,51059;0,00101
6,60000;0,21994;100,24650;0,00103
6,90000;0,22963;98,48238;0,00103
7,20000;0,23989;100,27157;0,00104
7,50000;0,25043;100,06164;0,00106
7,80000;0,25983;100,68205;0,00106
8,10000;0,27037;101,42780;0,00107
8,40000;0,27977;100,42824;0,00107
8,70000;0,29003;100,71965;0,00107
9,00000;0,30000;101,24920;0,00108
9,30000;0,30997;101,05806;0,00108
9,60000;0,32023;102,95066;0,00109
9,90000;0,32991;101,34007;0,00109
10,20000;0,34017;101,90095;0,00109
10,50000;0,35014;102,49630;0,00110
10,80000;0,36040;101,42467;0,00110
11,10000;0,36980;103,11046;0,00110
11,40000;0,37977;102,27696;0,00110
11,70000;0,38974;103,13552;0,00111
12,00000;0,40000;103,57733;0,00112
12,30000;0,41026;103,60554;0,00112
12,60000;0,42023;105,46366;0,00113
12,90000;0,43048;106,05274;0,00114
13,20000;0,44046;107,08991;0,00115
13,50000;0,44986;108,67856;0,00116
13,80000;0,46040;109,13917;0,00116
14,10000;0,46980;110,73095;0,00117
14,40000;0,48006;111,44850;0,00119
14,70000;0,49003;116,48391;0,00122
15,00000;0,49943;120,84565;0,00126
15,30000;0,50997;128,61654;0,00132
15,60000;0,51966;134,41964;0,00137
15,90000;0,52991;138,75318;0,00141
16,20000;0,54017;143,97659;0,00146
16,50000;0,55014;149,48202;0,00151
16,80000;0,56011;154,14769;0,00156
17,10000;0,57037;160,37067;0,00161
17,40000;0,58034;165,67870;0,00167
17,70000;0,58946;170,36630;0,00172
18,00000;0,60000;177,18463;0,00178
18,30000;0,60969;183,05040;0,00183
18,60000;0,61994;190,63643;0,00189
18,90000;0,63048;196,17944;0,00195
19,20000;0,64017;201,72875;0,00201
19,50000;0,65100;207,76372;0,00207
19,80000;0,66011;213,25976;0,00212
20,10000;0,67037;219,97783;0,00218
20,40000;0,68034;224,13901;0,00224
20,70000;0,69003;229,40317;0,00229
21,00000;0,70028;235,41620;0,00234
21,30000;0,70969;239,78734;0,00239
21,60000;0,71966;246,70907;0,00245
21,90000;0,72963;251,57528;0,00251
22,20000;0,73989;258,05836;0,00257
22,50000;0,74986;264,51633;0,00264
22,80000;0,75983;270,54818;0,00270
23,10000;0,76980;277,67359;0,00277
23,40000;0,77977;283,76498;0,00283
23,70000;0,79003;289,46153;0,00290
24,00000;0,79943;294,95757;0,00296
24,30000;0,80940;300,35647;0,00302
24,60000;0,81966;307,19673;0,00308
24,90000;0,82906;310,80644;0,00314
25,20000;0,84017;318,17937;0,00321
25,50000;0,84986;324,20496;0,00328
25,80000;0,86068;330,17728;0,00334
26,10000;0,87094;336,99875;0,00341
26,40000;0,88006;341,14113;0,00346
26,70000;0,89060;346,74057;0,00353
27,00000;0,89971;351,58170;0,00358
27,30000;0,91026;357,74829;0,00365
27,60000;0,92023;363,97439;0,00371
27,90000;0,93020;368,15752;0,00377
28,20000;0,93988;373,42480;0,00383
28,50000;0,94986;377,94947;0,00388
28,80000;0,96040;384,16306;0,00395
29,10000;0,97008;388,55299;0,00400
29,40000;0,98034;393,52574;0,00406
29,70000;0,98974;398,15693;0,00412
30,00000;1,00000;403,54328;0,00418
30,30000;1,01026;408,89517;0,00424
30,60000;1,01937;414,18439;0,00429
30,90000;1,02963;419,20412;0,00436
31,20000;1,03932;422,67283;0,00441
31,50000;1,04957;428,69844;0,00447
31,80000;1,05983;433,80279;0,00453
32,10000;1,06980;439,59334;0,00459
32,40000;1,08006;444,97657;0,00465
32,70000;1,09060;449,10642;0,00471
33,00000;1,10028;454,10739;0,00477
33,30000;1,11026;459,78199;0,00483
33,60000;1,12023;465,05868;0,00488
33,90000;1,12991;468,75300;0,00494
34,20000;1,13988;473,64114;0,00500
34,50000;1,15014;478,52304;0,00506
34,80000;1,15983;483,83418;0,00512
35,10000;1,17008;489,60908;0,00518
35,40000;1,18006;494,03035;0,00524
35,70000;1,19031;499,33838;0,00530
36,00000;1,20057;503,59671;0,00536
36,30000;1,20969;508,98306;0,00541
36,60000;1,22023;514,56681;0,00548
36,90000;1,22991;518,38960;0,00553
37,20000;1,24017;523,38429;0,00559
37,50000;1,24957;528,27555;0,00565
37,80000;1,25926;532,82217;0,00571
38,10000;1,26980;538,81952;0,00577
38,40000;1,27977;543,01205;0,00583
38,70000;1,29003;548,14462;0,00589
39,00000;1,30028;553,46829;0,00595
39,30000;1,31054;558,71052;0,00601
39,60000;1,32023;563,94334;0,00607
39,90000;1,32963;568,14840;0,00612
40,20000;1,33960;573,03966;0,00618
40,50000;1,34986;577,50167;0,00624
40,80000;1,36011;582,48695;0,00630
41,10000;1,36980;587,61640;0,00636
41,40000;1,37977;591,60520;0,00642
41,70000;1,38974;596,56543;0,00648
42,00000;1,40000;601,76379;0,00654
42,30000;1,41054;607,77371;0,00660
42,60000;1,41994;612,07274;0,00666
42,90000;1,43020;617,07683;0,00672
43,20000;1,44017;621,36962;0,00678
43,50000;1,44986;626,41134;0,00684
43,80000;1,46011;632,07028;0,00690
44,10000;1,46951;636,04345;0,00696
44,40000;1,47977;640,73107;0,00702
44,70000;1,48974;645,62862;0,00708
45,00000;1,49971;649,61435;0,00714
45,30000;1,51025;655,96579;0,00720
45,60000;1,52023;660,37136;0,00726
45,90000;1,53048;664,76758;0,00732
46,20000;1,54017;669,32985;0,00738
46,50000;1,55014;673,98925;0,00744
46,80000;1,55983;678,11599;0,00749
47,10000;1,56980;682,64375;0,00755
47,40000;1,58006;687,23736;0,00761
47,70000;1,59003;691,82157;0,00767
48,00000;1,60028;696,63450;0,00773
48,30000;1,60968;700,42596;0,00778
48,60000;1,61994;706,50480;0,00785
48,90000;1,63020;710,90725;0,00791
49,20000;1,63988;714,05009;0,00796
49,50000;1,65014;719,34559;0,00802
49,80000;1,65926;723,11508;0,00807
50,10000;1,66980;728,25076;0,00813
50,40000;1,68006;732,96661;0,00819
50,70000;1,68946;735,65822;0,00824
51,00000;1,69971;741,43936;0,00830
51,30000;1,70911;745,04279;0,00836
51,60000;1,71994;751,17806;0,00842
51,90000;1,73020;754,87862;0,00848
52,20000;1,74045;759,33123;0,00855
52,50000;1,75043;764,38542;0,00860
52,80000;1,76040;768,15495;0,00866
53,10000;1,77037;773,29064;0,00871
53,40000;1,78005;776,88782;0,00877
53,70000;1,79031;781,43440;0,00883
54,00000;1,80000;785,57050;0,00888
54,30000;1,81025;790,88798;0,00894
54,60000;1,82023;794,63860;0,00900
54,90000;1,82963;798,31416;0,00905
55,20000;1,84017;802,68215;0,00911
55,50000;1,84986;807,14105;0,00917
55,80000;1,86040;811,98839;0,00923
56,10000;1,87037;816,83267;0,00929
56,40000;1,87949;819,32377;0,00933
56,70000;1,89003;824,40302;0,00940
57,00000;1,89971;827,62418;0,00945
57,30000;1,90997;831,98594;0,00951
57,60000;1,91966;836,13144;0,00956
57,90000;1,92934;839,75056;0,00961
58,20000;1,93960;843,83339;0,00967
58,50000;1,94957;847,84105;0,00972
58,80000;1,96040;852,16211;0,00979
59,10000;1,96980;856,46110;0,00984
59,40000;1,98062;860,30588;0,00990
59,70000;1,99003;863,93747;0,00995
60,00000;2,00028;868,71283;0,01000
60,30000;2,01054;872,21283;0,01006
60,60000;2,01966;875,81007;0,01011
60,90000;2,03077;879,09075;0,01018
61,20000;2,03988;883,64985;0,01022
61,50000;2,05042;888,21836;0,01028
61,80000;2,06040;892,02868;0,01034
62,10000;2,06980;896,47183;0,01039
62,40000;2,08005;898,96601;0,01045
62,70000;2,09003;903,64115;0,01050
63,00000;2,10000;908,60138;0,01056
63,30000;2,11025;911,02347;0,01062
63,60000;2,11994;916,23748;0,01067
63,90000;2,12991;918,71293;0,01072
64,20000;2,13931;922,68605;0,01078
64,50000;2,14957;926,66550;0,01083
64,80000;2,15897;929,94627;0,01089
65,10000;2,16980;934,81559;0,01095
65,40000;2,17977;937,74218;0,01101
65,70000;2,18974;942,28256;0,01106
66,00000;2,20028;946,39044;0,01112
66,30000;2,20968;948,80946;0,01117
66,60000;2,22023;954,17071;0,01123
66,90000;2,22963;957,04412;0,01128
67,20000;2,24045;961,69095;0,01134
67,50000;2,25014;965,06570;0,01140
67,80000;2,25983;968,37459;0,01145
68,10000;2,27037;973,83298;0,01151
68,40000;2,27948;976,62173;0,01156
68,70000;2,29031;981,49423;0,01162
69,00000;2,30028;984,75609;0,01168
69,30000;2,31025;988,85465;0,01173
69,60000;2,32051;993,58922;0,01179
69,90000;2,32991;995,47245;0,01184
70,20000;2,34017;999,74331;0,01190
70,50000;2,35014;1004,24914;0,01196
70,80000;2,35983;1007,21652;0,01201
71,10000;2,36951;1011,05496;0,01206
71,40000;2,37948;1014,63329;0,01212
71,70000;2,39003;1019,27081;0,01218
72,00000;2,39943;1022,43554;0,01223
72,30000;2,41054;1027,54300;0,01230
72,60000;2,42051;1030,76417;0,01235
72,90000;2,43048;1034,79382;0,01241
73,20000;2,44017;1038,90793;0,01247
73,50000;2,44957;1041,69669;0,01252
73,80000;2,46040;1046,20261;0,01258
74,10000;2,46980;1049,02582;0,01263
74,40000;2,48005;1053,28104;0,01269
74,70000;2,48974;1056,15435;0,01275
75,00000;2,49943;1059,89249;0,01280
75,30000;2,50997;1064,99689;0,01286
75,60000;2,52023;1067,92664;0,01292
75,90000;2,53020;1072,19750;0,01298
76,20000;2,54017;1075,45312;0,01304
76,50000;2,55014;1079,27592;0,01309
76,80000;2,56011;1082,96396;0,01315
77,10000;2,57037;1086,95906;0,01321
77,40000;2,58005;1090,32439;0,01326
77,70000;2,58917;1093,21335;0,01331
78,00000;2,59971;1097,78186;0,01338
78,30000;2,60940;1101,21928;0,01343
78,60000;2,62023;1104,74126;0,01350
78,90000;2,63077;1109,56049;0,01356
79,20000;2,64017;1112,08595;0,01361
79,50000;2,65099;1117,13391;0,01368
79,80000;2,66040;1119,62184;0,01372
80,10000;2,67037;1123,18145;0,01379
80,40000;2,68034;1127,01049;0,01384
80,70000;2,69003;1130,15333;0,01390
81,00000;2,70028;1134,59025;0,01396
81,30000;2,70968;1137,64852;0,01401
81,60000;2,71966;1141,04822;0,01407
81,90000;2,72991;1144,90548;0,01413
82,20000;2,73988;1148,59669;0,01419
82,50000;2,75014;1152,63248;0,01425
82,80000;2,76011;1156,02287;0,01431
83,10000;2,76980;1159,68268;0,01436
83,40000;2,77977;1163,33626;0,01442
83,70000;2,79031;1166,77685;0,01448
84,00000;2,79971;1169,83503;0,01454
84,30000;2,80940;1172,92143;0,01459
84,60000;2,81965;1176,91969;0,01466
84,90000;2,82906;1180,47297;0,01471
85,20000;2,84017;1184,86919;0,01478
85,50000;2,85014;1187,94935;0,01484
85,80000;2,86040;1192,22645;0,01490
86,10000;2,87094;1196,36264;0,01496
86,40000;2,88005;1199,89393;0,01501
86,70000;2,89060;1203,21857;0,01508
87,00000;2,89971;1205,87880;0,01513
87,30000;2,90997;1209,36008;0,01519
87,60000;2,92022;1213,89097;0,01526
87,90000;2,92991;1216,92102;0,01531
88,20000;2,94017;1221,19188;0,01538
88,50000;2,94985;1223,99945;0,01543
88,80000;2,96011;1228,24525;0,01550
89,10000;2,97008;1231,45701;0,01556
89,40000;2,98034;1235,39260;0,01562
89,70000;2,98974;1237,83033;0,01568
90,00000;3,00000;1241,49648;0,01574
90,30000;3,00997;1245,25344;0,01580
90,60000;3,01965;1248,80988;0,01586
90,90000;3,02991;1252,40702;0,01592
91,20000;3,03874;1255,09240;0,01597
91,50000;3,04957;1259,12512;0,01604
91,80000;3,06011;1263,73442;0,01610
92,10000;3,07008;1266,62971;0,01616
92,40000;3,08034;1270,79086;0,01623
92,70000;3,09002;1273,47931;0,01629
93,00000;3,10028;1277,33033;0,01635
93,30000;3,11025;1280,49506;0,01641
93,60000;3,12022;1283,88545;0,01647
93,90000;3,12991;1286,89352;0,01653
94,20000;3,13988;1290,33402;0,01659
94,50000;3,15042;1294,59864;0,01666
94,80000;3,16011;1297,39996;0,01672
95,10000;3,17008;1301,48903;0,01678
95,40000;3,18005;1304,87001;0,01684
95,70000;3,19031;1308,34812;0,01690
96,00000;3,20057;1311,52850;0,01696
96,30000;3,20968;1314,38309;0,01703
96,60000;3,22022;1318,23095;0,01709
96,90000;3,22991;1321,31735;0,01715
97,20000;3,24017;1325,20907;0,01722
97,50000;3,24985;1328,44904;0,01728
97,80000;3,25954;1331,54485;0,01734
98,10000;3,26980;1335,44914;0,01741
98,40000;3,27948;1338,55743;0,01747
98,70000;3,29031;1342,69046;0,01754
99,00000;3,30028;1345,92103;0,01760
99,30000;3,31025;1349,28944;0,01766
99,60000;3,32022;1352,48238;0,01772
99,90000;3,32991;1355,62522;0,01778
100,20000;3,33988;1359,19424;0,01785
100,50000;3,34985;1361,96101;0,01791
100,80000;3,35983;1365,66469;0,01797
101,10000;3,36980;1369,09895;0,01803
101,40000;3,38005;1372,58647;0,01810
101,70000;3,39002;1376,09905;0,01816
102,00000;3,40000;1379,21050;0,01823
102,30000;3,41025;1382,46613;0,01829
102,60000;3,41994;1385,59332;0,01835
102,90000;3,43020;1388,85519;0,01842
103,20000;3,44017;1392,80958;0,01848
103,50000;3,44957;1395,62031;0,01854
103,80000;3,46040;1399,87860;0,01861
104,10000;3,46980;1403,00579;0,01868
104,40000;3,47977;1405,48432;0,01874
104,70000;3,48974;1409,36039;0,01880
105,00000;3,49943;1411,86081;0,01886
105,30001;3,51025;1417,02471;0,01894
105,60001;3,52051;1419,93565;0,01900
105,90001;3,53048;1422,93749;0,01907
106,20001;3,54017;1426,49394;0,01913
106,50001;3,55014;1428,75938;0,01919
106,80001;3,56011;1432,85794;0,01927
107,10001;3,57008;1435,90048;0,01933
107,40001;3,58005;1439,22186;0,01940
107,70001;3,58974;1441,89475;0,01946
108,00001;3,60028;1445,01561;0,01952
108,30001;3,60968;1448,21173;0,01959
108,60001;3,62022;1451,31378;0,01966
108,90001;3,63020;1454,40651;0,01973
109,20001;3,63931;1457,59312;0,01979
109,50001;3,65042;1461,05243;0,01986
109,80001;3,65954;1463,92891;0,01992
110,10001;3,67008;1467,65150;0,01999
110,40001;3,68005;1470,45897;0,02006
110,70001;3,68974;1473,31674;0,02012
111,00001;3,69971;1477,33688;0,02019
111,30001;3,70940;1479,01643;0,02025
111,60001;3,71994;1482,44435;0,02032
111,90001;3,72963;1485,43054;0,02039
112,20001;3,74017;1488,93995;0,02046
112,50001;3,75042;1491,49997;0,02053
112,80001;3,76039;1495,07523;0,02059
113,10001;3,77008;1498,33085;0,02066
113,40001;3,78034;1501,15089;0,02073
113,70001;3,79059;1504,14957;0,02080
114,00001;3,80000;1507,21408;0,02086
114,30001;3,81025;1509,79916;0,02093
114,60001;3,82022;1512,77278;0,02100
114,90001;3,82963;1515,64619;0,02106
115,20001;3,84017;1519,48147;0,02113
115,50001;3,84985;1521,68116;0,02120
115,80001;3,86011;1525,64179;0,02127
116,10001;3,87008;1528,39292;0,02134
116,40001;3,87948;1530,84956;0,02140
116,70001;3,89002;1534,64414;0,02147
117,00001;3,89971;1537,11634;0,02154
117,30001;3,90997;1540,78249;0,02161
117,60001;3,91965;1542,59671;0,02168
117,90001;3,92963;1544,71491;0,02174
118,20001;3,93960;1548,72257;0,02181
118,50001;3,94928;1550,56501;0,02188
118,80001;3,96011;1554,70120;0,02195
119,10001;3,96980;1556,93842;0,02202
119,40001;3,98091;1560,92728;0,02209
119,70001;3,99002;1563,29609;0,02216
120,00001;4,00028;1565,82482;0,02222
120,30001;4,01054;1568,88608;0,02230
120,60001;4,01994;1571,28945;0,02236
120,90001;4,03076;1574,80203;0,02244
121,20001;4,03960;1576,80735;0,02250
121,50001;4,05014;1580,00048;0,02258
121,80001;4,06039;1582,99599;0,02265
122,10001;4,07008;1585,71266;0,02272
122,40001;4,08034;1589,35059;0,02279
122,70001;4,09002;1591,90744;0,02286
123,00001;4,10028;1594,78709;0,02293
123,30001;4,11025;1598,07708;0,02300
123,60001;4,12022;1600,52441;0,02307
123,90001;4,13020;1603,50110;0,02315
124,20001;4,13960;1605,85120;0,02321
124,50001;4,14957;1608,79977;0,02328
124,80001;4,15925;1611,50694;0,02335
125,10001;4,16980;1614,01685;0,02343
125,40001;4,17977;1617,60468;0,02350
125,70001;4,19002;1621,01388;0,02357
126,00001;4,20085;1623,73055;0,02365
126,30001;4,20997;1625,91767;0,02371
126,60001;4,22051;1628,55908;0,02379
126,90001;4,22962;1630,83710;0,02386
127,20001;4,23988;1633,28107;0,02393
127,50001;4,25014;1636,17637;0,02401
127,80001;4,25982;1638,81164;0,02407
128,10001;4,27008;1641,56593;0,02415
128,40001;4,27948;1643,01358;0,02421
128,70001;4,29059;1647,51634;0,02429
129,00001;4,30028;1650,07636;0,02437
129,30001;4,30997;1651,47688;0,02444
129,60001;4,32022;1655,37801;0,02451
129,90001;4,32991;1658,06655;0,02459
130,20001;4,34017;1660,48240;0,02466
130,50001;4,35014;1662,59743;0,02473
130,80001;4,35982;1666,20724;0,02480
131,10001;4,36951;1667,25367;0,02487
131,40001;4,37948;1669,83884;0,02495
131,70001;4,39002;1673,94355;0,02502
132,00001;4,39943;1676,48178;0,02509
132,30001;4,41025;1678,42451;0,02517
132,60001;4,42022;1681,10672;0,02525
132,90001;4,43048;1683,81706;0,02532
133,20001;4,44045;1685,88199;0,02540
133,50001;4,44957;1687,83106;0,02546
133,80001;4,46011;1691,05530;0,02555
134,10001;4,46980;1692,43719;0,02561
134,40001;4,48005;1695,87769;0,02569
134,70001;4,48974;1697,99272;0,02576
135,00001;4,49943;1699,70971;0,02583
135,30001;4,51025;1703,33516;0,02592
135,60001;4,52022;1705,16502;0,02600
135,90001;4,53019;1707,71889;0,02607
136,20001;4,54017;1710,52013;0,02615
136,50001;4,55014;1713,18986;0,02622
136,80001;4,56011;1714,64048;0,02630
137,10001;4,57008;1716,90285;0,02637
137,40001;4,57977;1719,17770;0,02645
137,70001;4,58917;1721,27709;0,02652
138,00001;4,60000;1724,58924;0,02660
138,30001;4,60997;1727,08333;0,02668
138,60001;4,61994;1728,97596;0,02675
138,90001;4,63076;1731,70511;0,02684
139,20001;4,64045;1733,83597;0,02691
139,50001;4,65099;1736,78137;0,02699
139,80001;4,66011;1737,41430;0,02706
140,10001;4,67008;1740,11532;0,02714
140,40001;4,68005;1742,36204;0,02722
140,70001;4,69002;1744,43312;0,02729
141,00001;4,70028;1747,09354;0,02737
141,30001;4,70968;1749,04559;0,02745
141,60001;4,71965;1750,91308;0,02753
141,90001;4,72991;1752,99048;0,02760
142,20001;4,74017;1755,40633;0,02768
142,50001;4,75014;1758,07290;0,02776
142,80001;4,75982;1759,47994;0,02783
143,10001;4,76979;1762,12136;0,02791
143,40001;4,77948;1763,45930;0,02799
143,70001;4,79002;1765,92525;0,02807
144,00001;4,79942;1767,63926;0,02815
144,30001;4,80940;1769,45366;0,02822
144,60001;4,81994;1772,33312;0,02830
144,90001;4,82905;1773,76196;0,02838
145,20001;4,84017;1776,66042;0,02847
145,50001;4,85014;1779,11073;0,02854
145,80001;4,86068;1780,45500;0,02863
146,10001;4,87093;1783,40040;0,02871
146,40001;4,88005;1784,72269;0,02878
146,70001;4,89059;1787,38609;0,02886
147,00001;4,89971;1789,08128;0,02893
147,30001;4,90997;1791,24027;0,02902
147,60001;4,92022;1793,88802;0,02911
147,90001;4,93019;1795,58955;0,02919
148,20001;4,94017;1797,19385;0,02927
148,50001;4,94985;1799,01440;0,02934
148,80001;4,96039;1801,76552;0,02943
149,10001;4,96980;1802,81512;0,02951
149,40001;4,98034;1805,08997;0,02959
149,70001;4,98945;1806,40928;0,02967
150,00001;4,99971;1808,41144;0,02975
150,30001;5,00997;1810,63619;0,02983
150,60001;5,01937;1812,07750;0,02991
150,90001;5,02991;1814,71277;0,03000
151,20001;5,03931;1815,84395;0,03007
151,50001;5,04985;1818,30674;0,03016
151,80001;5,06011;1820,18373;0,03024
152,10001;5,06951;1821,55613;0,03032
152,40001;5,08034;1824,15061;0,03042
152,70001;5,09002;1825,56696;0,03049
153,00001;5,10028;1827,67566;0,03058
153,30001;5,11025;1829,95684;0,03066
153,60001;5,11965;1830,93138;0,03074
153,90001;5,13019;1833,56348;0,03083
154,20001;5,14017;1835,11768;0,03091
154,50001;5,15042;1836,89110;0,03100
154,80001;5,16011;1838,81503;0,03109
155,10001;5,17036;1841,34059;0,03118
155,40001;5,18005;1843,19559;0,03126
155,70001;5,19031;1844,43649;0,03135
156,00001;5,20056;1846,40102;0,03143
156,30001;5,20968;1847,46329;0,03151
156,60001;5,21994;1849,12719;0,03160
156,90001;5,22991;1850,79426;0,03169
157,20001;5,24017;1852,74631;0,03178
157,50001;5,24985;1854,65459;0,03186
157,80001;5,25925;1855,39722;0,03194
158,10001;5,26979;1857,63761;0,03203
158,40001;5,27977;1859,69938;0,03211
158,70001;5,29002;1861,45417;0,03220
159,00001;5,29971;1863,14303;0,03228
159,30001;5,30997;1864,24907;0,03237
159,60001;5,32022;1866,65878;0,03246
159,90001;5,32991;1867,46083;0,03254
160,20001;5,33988;1869,66360;0,03263
160,50001;5,34985;1870,55673;0,03272
160,80001;5,36039;1872,20480;0,03281
161,10001;5,37008;1874,22913;0,03289
161,40001;5,38005;1875,63598;0,03298
161,70001;5,38974;1876,45070;0,03307
162,00001;5,39971;1878,11144;0,03315
162,30001;5,41025;1880,20132;0,03325
162,60001;5,41994;1880,83425;0,03333
162,90001;5,43019;1883,02454;0,03342
163,20001;5,44045;1885,98875;0,03351
163,50001;5,44985;1886,16738;0,03360
163,80001;5,46039;1887,90653;0,03369
164,10001;5,46951;1889,10030;0,03378
164,40001;5,47977;1890,16573;0,03387
164,70001;5,48974;1891,58190;0,03396
165,00001;5,49971;1893,02657;0,03404
165,30001;5,50997;1895,20102;0,03414
165,60001;5,51994;1896,47637;0,03423
165,90001;5,53048;1898,57576;0,03433
166,20001;5,54017;1899,23383;0,03442
166,50001;5,55042;1900,71277;0,03451
166,80001;5,56039;1901,99129;0,03460
167,10001;5,57008;1903,42311;0,03469
167,40001;5,58034;1904,86461;0,03478
167,70001;5,59002;1905,82331;0,03487
168,00001;5,60028;1907,31809;0,03496
168,30001;5,60968;1908,68732;0,03505
168,60001;5,61965;1909,17607;0,03514
168,90001;5,62991;1911,85214;0,03524
169,20001;5,63959;1912,12166;0,03533
169,50001;5,65071;1914,22105;0,03542
169,80001;5,65954;1914,65337;0,03551
170,10001;5,66979;1915,19242;0,03560
170,40001;5,68034;1917,63956;0,03570
170,70001;5,68945;1918,05009;0,03578
171,00001;5,69971;1919,78272;0,03588
171,30001;5,70911;1920,30612;0,03596
171,60001;5,71965;1921,83200;0,03606
171,90001;5,72962;1923,16063;0,03616
172,20001;5,74016;1924,16646;0,03626
172,50001;5,75042;1926,02780;0,03635
172,80001;5,76068;1926,77341;0,03644
173,10001;5,77036;1928,05827;0,03654
173,40001;5,78034;1929,07341;0,03663
173,70001;5,79059;1929,69069;0,03672
174,00001;5,79999;1930,69968;0,03681
174,30001;5,81025;1932,05010;0,03691
174,60001;5,82022;1932,94007;0,03701
174,90001;5,82962;1934,12453;0,03710
175,20001;5,83988;1935,29334;0,03719
175,50001;5,84985;1936,40254;0,03729
175,80001;5,86039;1937,58067;0,03739
176,10001;5,87036;1938,58650;0,03748
176,40001;5,87977;1939,30715;0,03757
176,70001;5,89002;1940,71718;0,03767
177,00001;5,89971;1941,29068;0,03776
177,30001;5,90968;1942,37791;0,03786
177,60001;5,91937;1943,04846;0,03795
177,90001;5,92905;1943,89764;0,03804
178,20001;5,93931;1945,25439;0,03814
178,50001;5,94928;1946,11922;0,03824
178,80001;5,96068;1947,90848;0,03835
179,10001;5,97008;1949,30900;0,03844
179,40001;5,98090;1949,54090;0,03854
179,70001;5,99002;1949,97657;0,03863
180,00001;6,00028;1951,33332;0,03873
180,30001;6,01053;1951,65593;0,03883
180,60001;6,01965;1952,98772;0,03893
180,90001;6,03048;1953,48915;0,03902
181,20001;6,03988;1954,86154;0,03912
181,50001;6,05014;1955,52576;0,03922
181,80001;6,06039;1956,76982;0,03933
182,10001;6,07008;1957,25542;0,03942
182,40001;6,08034;1959,44887;0,03953
182,70001;6,09031;1959,71839;0,03962
183,00001;6,10028;1960,37628;0,03972
183,30001;6,11025;1961,47300;0,03982
183,60001;6,12022;1961,70174;0,03992
183,90001;6,13019;1962,61052;0,04003
184,20001;6,13959;1963,20266;0,04012
184,50001;6,14957;1964,48434;0,04022
184,80001;6,15897;1964,64397;0,04031
185,10001;6,17008;1966,12608;0,04042
185,40001;6,18033;1967,66146;0,04053
185,70001;6,19031;1968,07515;0,04063
186,00001;6,20056;1968,54826;0,04073
186,30001;6,20968;1969,37863;0,04082
186,60001;6,22022;1969,81728;0,04093
186,90001;6,22962;1970,09929;0,04102
187,20001;6,23988;1971,61287;0,04113
187,50001;6,24985;1971,92300;0,04123
187,80001;6,25925;1972,53712;0,04132
188,10001;6,27065;1973,37996;0,04143
188,40001;6,27977;1973,07616;0,04153
188,70001;6,29031;1974,87473;0,04164
189,00001;6,30028;1975,76769;0,04174
189,30001;6,31025;1976,50716;0,04184
189,60001;6,32051;1976,52597;0,04195
189,90001;6,32962;1976,88323;0,04204
190,20001;6,34016;1978,13977;0,04215
190,50001;6,34985;1979,16124;0,04225
190,80001;6,36011;1979,56543;0,04236
191,10001;6,36951;1979,63752;0,04246
191,40001;6,37920;1980,03240;0,04256
191,70001;6,38974;1981,26994;0,04267
192,00001;6,39971;1982,30725;0,04277
192,30001;6,41053;1983,57310;0,04288
192,60001;6,41994;1983,59806;0,04299
192,90001;6,43019;1983,59508;0,04309
193,20001;6,44016;1984,95183;0,04319
193,50001;6,44957;1984,70745;0,04329
193,80001;6,46039;1985,74457;0,04340
194,10001;6,46922;1984,49437;0,04350
194,40001;6,48005;1986,51850;0,04361
194,70001;6,49031;1987,45225;0,04372
195,00001;6,49971;1987,35520;0,04382
195,30001;6,51025;1987,89407;0,04393
195,60001;6,51994;1988,19488;0,04403
195,90001;6,53019;1989,75224;0,04414
196,20001;6,54016;1990,17841;0,04425
196,50001;6,54985;1990,21287;0,04435
196,80001;6,55982;1990,69846;0,04446
197,10001;6,57008;1991,12147;0,04456
197,40001;6,58005;1992,17740;0,04467
197,70001;6,58945;1992,03026;0,04477
198,00001;6,59999;1992,16809;0,04489
198,30001;6,60996;1993,22719;0,04499
198,60001;6,62022;1993,31809;0,04511
198,90001;6,63076;1994,42729;0,04522
199,20001;6,64016;1994,40531;0,04532
199,50001;6,65099;1995,53967;0,04544
199,80001;6,65982;1994,80634;0,04553
200,10001;6,67036;1995,60542;0,04565
200,40001;6,68033;1995,61492;0,04576
200,70001;6,69002;1996,46093;0,04586
201,00001;6,70028;1996,86512;0,04597
201,30001;6,70968;1997,00613;0,04608
201,60001;6,71994;1997,24734;0,04619
201,90001;6,72991;1998,35971;0,04629
202,20001;6,74016;1998,50071;0,04640
202,50001;6,74985;1998,22504;0,04651
202,80001;6,75982;1998,69499;0,04662
203,10001;6,76979;1998,88926;0,04673
203,40001;6,77976;1998,96451;0,04684
203,70001;6,79002;1999,15878;0,04695
204,00001;6,79971;1999,89825;0,04706
204,30001;6,80968;1999,46277;0,04716
204,60001;6,81965;1999,78855;0,04728
204,90001;6,82905;2000,34622;0,04738
205,20001;6,84016;2001,37403;0,04750
205,50001;6,84957;2001,02311;0,04761
205,80001;6,86068;2001,82833;0,04772
206,10001;6,87093;2002,55532;0,04784
206,40001;6,87948;2001,17975;0,04793
206,70001;6,89031;2002,40817;0,04805
207,00001;6,89971;2002,60244;0,04816
207,30001;6,91053;2003,56431;0,04828
207,60001;6,92051;2003,31993;0,04839
207,90001;6,93019;2003,19141;0,04850
208,20001;6,94045;2003,62392;0,04861
208,50001;6,94985;2003,71481;0,04872
208,80001;6,96039;2004,55450;0,04883
209,10001;6,96979;2003,82750;0,04894
209,40001;6,98033;2004,44162;0,04906
209,70001;6,98974;2004,54202;0,04917
210,00001;6,99999;2004,99948;0,04929
210,30001;7,01025;2005,28149;0,04940
210,60001;7,01965;2004,46676;0,04951
210,90001;7,03019;2005,76391;0,04963
211,20001;7,03931;2005,43180;0,04973
211,50001;7,04985;2005,75460;0,04985
211,80001;7,06011;2006,34059;0,04996
212,10001;7,06979;2006,17444;0,05007
212,40001;7,08033;2005,84233;0,05019
212,66601;7,08888;2005,94570;0,05029
212,96201;7,09885;2006,03660;0,05040
213,26201;7,10911;2005,86431;0,05052
213,56201;7,11851;2005,76391;0,05063
213,86201;7,12877;2006,44396;0,05075
214,16201;7,13845;2006,72597;0,05086
214,46201;7,14900;2007,40583;0,05097
214,76201;7,15840;2006,50655;0,05108
215,06201;7,16837;2006,55684;0,05120
215,36201;7,17891;2007,25235;0,05132
215,66201;7,18888;2006,96718;0,05143
215,96201;7,19914;2007,74744;0,05155
216,26201;7,20854;2008,00132;0,05166
216,56201;7,21880;2007,70982;0,05178
216,86201;7,22877;2007,94488;0,05190
217,16201;7,23902;2008,06390;0,05202
217,46201;7,24871;2007,78190;0,05213
217,76201;7,25811;2007,31810;0,05224
218,06201;7,26865;2008,14232;0,05236
218,36201;7,27805;2007,19908;0,05247
218,66201;7,28860;2007,81021;0,05259
218,96201;7,29885;2007,91657;0,05271
219,26201;7,30882;2008,22055;0,05283
219,56201;7,31908;2008,30214;0,05295
219,86201;7,32877;2008,51522;0,05306
220,16201;7,33874;2008,56533;0,05318
220,46201;7,34871;2007,75992;0,05330
220,76201;7,35868;2008,16728;0,05341
221,06201;7,36865;2008,47760;0,05353
221,36201;7,37834;2008,01063;0,05365
221,66201;7,38803;2008,19243;0,05376
221,96201;7,39828;2007,83834;0,05388
222,26201;7,40882;2008,67802;0,05400
222,56201;7,41880;2008,74396;0,05412
222,86201;7,42934;2008,58712;0,05425
223,16201;7,43931;2008,40868;0,05437
223,46201;7,44871;2008,21441;0,05448
223,76201;7,45897;2008,92873;0,05460
224,06201;7,46837;2007,79140;0,05471
224,36201;7,47834;2008,05459;0,05483
224,66201;7,48831;2007,56881;0,05495
224,96201;7,49800;2007,18027;0,05507
225,26201;7,50882;2008,68435;0,05520
225,56201;7,51908;2008,21739;0,05532
225,86201;7,52934;2009,00398;0,05544
226,16201;7,53931;2008,36156;0,05556
226,46201;7,54928;2008,22372;0,05567
226,76201;7,55925;2008,66237;0,05579
227,06201;7,56865;2008,26135;0,05591
227,36201;7,57891;2008,56533;0,05603
227,66201;7,58860;2007,80388;0,05615
227,96201;7,59885;2008,21124;0,05627
228,26201;7,60854;2008,01063;0,05639
228,56201;7,61880;2007,83201;0,05651
228,86201;7,62877;2008,24887;0,05663
229,16201;7,63817;2007,36839;0,05674
229,46201;7,64928;2008,37422;0,05687
229,76201;7,65840;2006,58813;0,05699
230,06201;7,66865;2007,26800;0,05711
230,36201;7,67891;2007,68169;0,05723
230,66201;7,68831;2006,07106;0,05734
230,96201;7,69828;2006,70715;0,05746
231,26201;7,70768;2005,73895;0,05757
231,56201;7,71794;2006,20890;0,05770
231,86201;7,72820;2006,48475;0,05782
232,16201;7,73874;2007,08937;0,05794
232,46201;7,74928;2006,80122;0,05807
232,76201;7,75897;2006,53169;0,05819
233,06201;7,76894;2006,04293;0,05831
233,36201;7,77891;2006,79805;0,05843
233,66201;7,78917;2005,76093;0,05855
233,96201;7,79885;2005,54784;0,05867
234,26201;7,80854;2005,04009;0,05878
234,56201;7,81880;2005,19990;0,05891
234,86201;7,82848;2004,05624;0,05903
235,16201;7,83874;2005,77658;0,05915
235,46201;7,84871;2004,70183;0,05927
235,76201;7,85868;2004,50439;0,05939
236,06201;7,86922;2004,44162;0,05952
236,36201;7,87834;2003,79621;0,05964
236,66201;7,88888;2004,95869;0,05977
236,96201;7,89800;2003,23854;0,05988
237,26201;7,90854;2004,09386;0,06001
237,56201;7,91822;2003,23537;0,06013
237,86201;7,92763;2002,39867;0,06024
238,16201;7,93845;2004,04376;0,06037
238,46201;7,94785;2002,15746;0,06050
238,76201;7,95897;2003,51421;0,06063
239,06201;7,96865;2003,19141;0,06075
239,36201;7,97919;2003,26983;0,06087
239,66201;7,98859;2002,26400;0,06099
239,96201;7,99828;2001,58712;0,06111
240,26201;8,00854;2002,98782;0,06124
240,56201;8,01851;2002,42698;0,06136
240,86201;8,02905;2002,51769;0,06149
241,16201;8,03817;2001,62157;0,06160
241,46201;8,04899;2001,12034;0,06173
241,76201;8,05925;2001,09202;0,06186
242,06201;8,06865;2001,69049;0,06198
242,36201;8,07919;2001,56830;0,06211
242,66201;8,08860;2001,52136;0,06223
242,96201;8,09914;2000,57197;0,06236
243,26201;8,10882;2001,00746;0,06249
243,56201;8,11879;2000,30878;0,06261
243,86201;8,12905;2000,49039;0,06274
244,16201;8,13817;1999,18058;0,06285
244,46201;8,14842;1999,52535;0,06299
244,76201;8,15811;1999,24652;0,06311
245,06201;8,16865;1999,12749;0,06324
245,36201;8,17891;1999,73527;0,06337
245,66201;8,18888;1999,75725;0,06350
245,96201;8,19942;1999,72894;0,06363
246,26201;8,20854;1998,66053;0,06375
246,56201;8,21879;1998,64488;0,06388
246,86201;8,22848;1998,61974;0,06400
247,16201;8,23845;1998,17177;0,06413
247,46201;8,24871;1997,59211;0,06425
247,76201;8,25868;1998,00879;0,06438
248,06201;8,26922;1997,93037;0,06451
248,36201;8,27834;1996,74908;0,06463
248,66201;8,28888;1997,54182;0,06476
248,96201;8,29885;1997,18159;0,06489
249,26201;8,30825;1995,97515;0,06501
249,56201;8,31908;1996,67402;0,06514
249,86201;8,32820;1994,92555;0,06526
250,16201;8,33874;1995,68998;0,06539
250,46201;8,34871;1996,86829;0,06552
250,76201;8,35839;1995,38618;0,06564
251,06201;8,36837;1995,53333;0,06577
251,36201;8,37805;1994,33956;0,06589
251,66201;8,38888;1995,51452;0,06603
251,96201;8,39857;1995,43312;0,06615
252,26201;8,40911;1995,35787;0,06629
252,56201;8,41879;1995,49571;0,06641
252,86201;8,42905;1994,97566;0,06654
253,16201;8,43902;1994,13896;0,06667
253,46201;8,44842;1993,73793;0,06679
253,76201;8,45925;1994,01677;0,06693
254,06201;8,46865;1994,24233;0,06705
254,36201;8,47891;1993,81616;0,06718
254,66201;8,48888;1993,46524;0,06731
254,96201;8,49828;1992,60674;0,06743
255,26201;8,50911;1992,91687;0,06757
255,56201;8,51851;1992,53149;0,06769
255,86201;8,52877;1992,26215;0,06782
256,16201;8,53845;1991,62606;0,06795
256,46201;8,54842;1991,33456;0,06807
256,76201;8,55868;1991,68865;0,06821
257,06201;8,56865;1990,88641;0,06833
257,36201;8,57862;1991,12147;0,06847
257,66201;8,58802;1990,03741;0,06859
257,96201;8,59857;1990,19089;0,06871
258,26201;8,60825;1990,01227;0,06885
258,56201;8,61879;1990,54815;0,06898
258,86201;8,62933;1990,14079;0,06911
259,16201;8,63874;1990,01860;0,06923
259,46201;8,64985;1990,56063;0,06937
259,76201;8,65868;1989,62055;0,06949
260,06201;8,66922;1989,23834;0,06962
260,36201;8,67919;1989,64253;0,06975
260,66201;8,68888;1988,89989;0,06988
260,96201;8,69914;1988,47372;0,07001
261,26201;8,70854;1987,90040;0,07013
261,56201;8,71879;1987,63087;0,07026
261,86201;8,72877;1986,62821;0,07039
262,16201;8,73845;1986,58425;0,07051
262,46201;8,74871;1985,93885;0,07065
262,76201;8,75840;1985,76022;0,07077
263,06201;8,76837;1986,29610;0,07090
263,36201;8,77834;1985,74774;0,07103
263,66201;8,78888;1985,40296;0,07116
263,96201;8,79828;1985,26829;0,07129
264,26201;8,80797;1984,32188;0,07141
264,56201;8,81822;1985,02075;0,07155
264,86201;8,82763;1983,49152;0,07167
265,16201;8,83874;1984,43476;0,07181
265,46201;8,84842;1983,51033;0,07194
265,76201;8,85868;1984,67914;0,07206
266,06201;8,86894;1984,04305;0,07220
266,36201;8,87805;1982,56411;0,07232
266,66201;8,88945;1983,86442;0,07246
266,96201;8,89857;1982,89622;0,07258
267,26201;8,90882;1982,65817;0,07271
267,56201;8,91908;1982,51717;0,07285
267,86201;8,92876;1982,02208;0,07297
268,16201;8,93931;1982,48886;0,07311
268,46201;8,94814;1980,85643;0,07322
268,76201;8,95868;1981,08833;0,07336
269,06201;8,96894;1981,23865;0,07349
269,36201;8,97919;1981,29192;0,07362
269,66201;8,98859;1980,69345;0,07375
269,96201;8,99857;1980,78118;0,07388
270,26201;9,00882;1979,71277;0,07401
270,56201;9,01851;1980,39897;0,07415
270,86201;9,02876;1980,55878;0,07428
271,16201;9,03817;1979,01707;0,07440
271,46201;9,04785;1978,40910;0,07453
271,76201;9,05868;1979,36799;0,07467
272,06201;9,06808;1978,82913;0,07479
272,36201;9,07891;1978,93251;0,07493
272,66201;9,08859;1978,39979;0,07506
272,96201;9,09913;1978,38731;0,07519
273,26201;9,10911;1978,56594;0,07532
273,56201;9,11851;1977,69161;0,07545
273,86201;9,12876;1976,80797;0,07558
274,16201;9,13788;1975,57025;0,07570
274,46201;9,14899;1976,49784;0,07584
274,76201;9,15868;1976,25645;0,07598
275,06201;9,16837;1975,72391;0,07611
275,36201;9,17862;1975,73006;0,07624
275,66201;9,18888;1975,07516;0,07637
275,96201;9,19942;1976,38497;0,07651
276,26201;9,20882;1975,59539;0,07664
276,56201;9,21879;1975,28210;0,07677
276,86201;9,22848;1974,72740;0,07690
277,16201;9,23902;1974,53313;0,07703
277,46201;9,24899;1974,02555;0,07716
277,76201;9,25782;1973,31421;0,07729
278,06201;9,26837;1972,78466;0,07742
278,36201;9,27805;1972,60603;0,07755
278,66201;9,28888;1973,47403;0,07769
278,96201;9,29913;1973,21083;0,07783
279,26201;9,30882;1973,12627;0,07796
279,56201;9,31908;1972,38680;0,07809
279,86201;9,32848;1971,86973;0,07822
280,16201;9,33902;1971,51881;0,07835
280,46201;9,34871;1971,67546;0,07848
280,76201;9,35839;1970,60388;0,07861
281,06201;9,36837;1970,56625;0,07874
281,36201;9,37834;1969,84559;0,07887
281,66201;9,38831;1969,97393;0,07900
281,96201;9,39856;1969,35982;0,07914
282,26201;9,40854;1969,87055;0,07927
282,56201;9,41851;1969,09662;0,07940
282,86201;9,42933;1969,75153;0,07954
283,16201;9,43931;1969,24396;0,07967
283,46201;9,44785;1968,10644;0,07979
283,76201;9,45925;1969,43507;0,07993
284,06201;9,46837;1968,24744;0,08006
284,36201;9,47834;1968,13475;0,08019
284,66201;9,48831;1967,43589;0,08033
284,96201;9,49743;1965,92882;0,08045
285,26201;9,50911;1968,12209;0,08060
285,56201;9,51936;1967,80562;0,08074
285,86201;9,52962;1967,43906;0,08087
286,16201;9,53902;1967,63016;0,08101
286,46201;9,54899;1967,05051;0,08114
286,76201;9,55925;1966,58373;0,08127
287,06201;9,56865;1967,03803;0,08140
287,36201;9,57891;1966,72473;0,08153
287,66201;9,58859;1965,24262;0,08167
287,96201;9,59885;1965,21748;0,08180
288,26201;9,60854;1965,63117;0,08194
288,56201;9,61879;1965,67811;0,08207
288,86201;9,62905;1965,00756;0,08221
289,16201;9,63845;1964,90418;0,08233
289,46201;9,64928;1964,47801;0,08247
289,76201;9,65839;1963,27474;0,08260
290,06201;9,66837;1963,17770;0,08273
290,36201;9,67862;1963,93598;0,08287
290,66201;9,68802;1961,78630;0,08299
290,96201;9,69857;1963,15572;0,08313
291,26201;9,70740;1960,86820;0,08325
291,56201;9,71822;1961,71422;0,08340
291,86201;9,72848;1961,31319;0,08353
292,16201;9,73874;1961,90234;0,08366
292,46201;9,74899;1962,59785;0,08380
292,76201;9,75896;1960,84008;0,08393
293,06201;9,76922;1961,08129;0,08406
293,36201;9,77891;1960,15704;0,08420
293,66201;9,78916;1960,14438;0,08433
293,96201;9,79885;1960,95910;0,08447
294,26201;9,80882;1959,42372;0,08459
294,56201;9,81936;1959,62749;0,08473
294,86201;9,82848;1958,62167;0,08487
295,16201;9,83931;1959,22628;0,08500
295,46201;9,84871;1959,00705;0,08513
295,76201;9,85896;1958,75634;0,08527
296,06201;9,86922;1958,65929;0,08540
296,36201;9,87834;1956,68209;0,08553
296,66201;9,88888;1957,39325;0,08567
296,96201;9,89799;1956,39692;0,08580
297,26201;9,90854;1957,17718;0,08593
297,56201;9,91851;1956,81360;0,08607
297,86201;9,92819;1955,70122;0,08619
298,16201;9,93845;1956,60684;0,08634
298,46201;9,94814;1955,69191;0,08647
298,76201;9,95896;1956,01769;0,08661
299,06201;9,96865;1956,24959;0,08674
299,36201;9,97919;1955,29703;0,08688
299,66201;9,98859;1954,65777;0,08701
299,96201;9,99828;1954,72371;0,08714
300,26201;10,00854;1954,55756;0,08728
300,56201;10,01851;1953,96543;0,08741
300,86201;10,02905;1954,70490;0,08755
301,16201;10,03845;1953,35746;0,08768
301,46201;10,04928;1954,10326;0,08782
301,76201;10,05896;1953,52659;0,08795
302,06201;10,06865;1952,69324;0,08808
302,36201;10,07919;1952,67759;0,08822
302,66201;10,08831;1951,98189;0,08835
302,96201;10,09856;1952,42371;0,08849
303,26201;10,10882;1951,39274;0,08862
303,56201;10,11851;1952,32648;0,08875
303,86201;10,12905;1952,12290;0,08890
304,16201;10,13845;1951,10757;0,08902
304,46201;10,14842;1950,44968;0,08916
304,76201;10,15782;1949,75082;0,08929
305,06201;10,16837;1951,38957;0,08943
305,36201;10,17862;1950,69090;0,08957
305,66201;10,18888;1950,85704;0,08970
305,96201;10,19913;1950,03916;0,08984
306,26201;10,20854;1949,41871;0,08997
306,56201;10,21851;1949,18998;0,09011
306,86201;10,22848;1949,24008;0,09024
307,16201;10,23874;1949,57219;0,09038
307,46201;10,24871;1948,56022;0,09051
307,76201;10,25811;1947,34447;0,09064
308,06201;10,26922;1948,41288;0,09078
308,36201;10,27805;1946,52025;0,09091
308,66201;10,28888;1948,23425;0,09105
308,96201;10,29885;1947,52309;0,09119
309,26201;10,30825;1946,66442;0,09131
309,56201;10,31908;1947,13138;0,09146
309,86201;10,32848;1946,16001;0,09159
310,16201;10,33873;1947,36943;0,09173
310,46201;10,34899;1946,59550;0,09186
310,76201;10,35839;1945,83088;0,09199
311,06201;10,36865;1946,28853;0,09213
311,36201;10,37805;1945,32014;0,09226
311,66201;10,38859;1945,14468;0,09240
311,96201;10,39828;1945,52392;0,09254
312,26201;10,40911;1945,17300;0,09267
312,56201;10,41908;1945,61165;0,09281
312,86201;10,42905;1945,04764;0,09295
313,16201;10,43930;1944,25173;0,09308
313,46201;10,44842;1944,48978;0,09322
313,76201;10,45925;1944,54007;0,09336
314,06201;10,46865;1943,99469;0,09349
314,36201;10,47891;1943,75347;0,09362
314,66201;10,48888;1943,87250;0,09376
314,96201;10,49828;1942,51575;0,09389
315,26201;10,50882;1943,49345;0,09403
315,56201;10,51794;1942,12105;0,09416
315,86202;10,52848;1942,65060;0,09430
316,16202;10,53873;1942,98886;0,09443
316,46202;10,54871;1942,34662;0,09456
316,76202;10,55896;1942,51575;0,09471
317,06202;10,56865;1942,31831;0,09484
317,36202;10,57891;1941,87034;0,09498
317,66202;10,58831;1940,34744;0,09511
317,96202;10,59856;1940,44467;0,09524
318,26202;10,60825;1940,08742;0,09538
318,56202;10,61851;1940,56053;0,09552
318,86202;10,62933;1941,11206;0,09566
319,16202;10,63874;1940,68272;0,09579
319,46202;10,64985;1941,05562;0,09594
319,76202;10,65896;1940,21892;0,09607
320,06202;10,66893;1939,66441;0,09620
320,36202;10,67919;1938,89365;0,09634
320,66202;10,68859;1939,20061;0,09647
320,96202;10,69913;1937,76861;0,09661
321,26202;10,70825;1936,96655;0,09674
321,56202;10,71879;1937,91278;0,09688
321,86202;10,72876;1937,60265;0,09701
322,16202;10,73845;1937,18895;0,09714
322,46202;10,74871;1937,34877;0,09728
322,76202;10,75839;1936,38057;0,09741
323,06202;10,76865;1936,59365;0,09755
323,36202;10,77862;1935,97320;0,09769
323,66202;10,78859;1936,94457;0,09782
323,96202;10,79856;1936,07658;0,09796
324,26202;10,80797;1934,91410;0,09809
324,56202;10,81822;1935,13036;0,09823
324,86202;10,82734;1933,62311;0,09836
325,16202;10,83845;1935,45297;0,09850
325,46202;10,84842;1935,31513;0,09864
325,76202;10,85953;1934,37822;0,09879
326,06202;10,86979;1935,24305;0,09893
326,36202;10,87862;1933,77975;0,09905
326,66202;10,88945;1934,86400;0,09920
326,96202;10,89828;1933,43833;0,09933
327,26202;10,90882;1933,75163;0,09947
327,56202;10,91908;1933,66706;0,09960
327,86202;10,92848;1932,55786;0,09973
328,16202;10,93902;1932,57965;0,09988
328,46202;10,94842;1931,89979;0,10001
328,76202;10,95953;1932,93057;0,10015
329,06202;10,96893;1932,09089;0,10029
329,36202;10,97891;1932,64242;0,10042
329,66202;10,98859;1931,96554;0,10056
329,96202;10,99885;1932,22258;0,10069
330,26202;11,00882;1931,13517;0,10083
330,56202;11,01822;1931,31696;0,10096
330,86202;11,02848;1930,87514;0,10110
331,16202;11,03788;1929,70950;0,10123
331,46202;11,04814;1929,88496;0,10137
331,76202;11,05896;1931,35142;0,10152
332,06202;11,06865;1930,04161;0,10165
332,36202;11,07919;1930,62760;0,10180
332,66202;11,08888;1930,24538;0,10193
332,96202;11,09913;1929,94755;0,10207
333,26202;11,10882;1929,39620;0,10220
333,56202;11,11822;1929,28016;0,10233
333,86202;11,12905;1929,94457;0,10248
334,16202;11,13816;1927,71032;0,10261
334,46202;11,14899;1928,55019;0,10275
334,76202;11,15839;1928,68803;0,10288
335,06202;11,16836;1927,09304;0,10302
335,36202;11,17891;1927,94539;0,10317
335,66202;11,18916;1928,69417;0,10330
335,96202;11,19913;1927,51605;0,10344
336,26202;11,20854;1927,25919;0,10357
336,56202;11,21879;1926,68568;0,10371
336,86202;11,22876;1927,58497;0,10385
337,16202;11,23873;1926,83935;0,10399
337,46202;11,24842;1926,46328;0,10412
337,76202;11,25754;1925,82719;0,10425
338,06202;11,26865;1926,85816;0,10440
338,36202;11,27833;1926,24070;0,10454
338,66202;11,28888;1926,25951;0,10468
338,96202;11,29913;1926,50706;0,10482
339,26202;11,30882;1926,01830;0,10495
339,56202;11,31908;1926,66389;0,10509
339,86202;11,32848;1925,18178;0,10522
340,16202;11,33845;1925,67371;0,10535
340,46202;11,34842;1925,12218;0,10549
340,76202;11,35868;1924,97801;0,10563
341,06202;11,36893;1925,03128;0,10577
341,36202;11,37862;1924,44846;0,10591
341,66202;11,38831;1923,61493;0,10604
341,96202;11,39885;1924,52688;0,10618
342,26202;11,40911;1923,81237;0,10632
342,56202;11,41879;1923,29232;0,10646
342,86202;11,42848;1923,59611;0,10659
343,16202;11,43873;1923,43630;0,10673
343,46202;11,44814;1922,75960;0,10685
343,76202;11,45925;1922,93823;0,10700
344,06202;11,46808;1922,28016;0,10713
344,36202;11,47834;1922,28016;0,10727
344,66202;11,48831;1922,22688;0,10741
344,96202;11,49799;1921,51237;0,10754
345,26202;11,50882;1922,47126;0,10769
345,56202;11,51908;1922,16113;0,10783
345,86202;11,52933;1922,11717;0,10797
346,16202;11,53930;1921,86963;0,10811
346,46202;11,54899;1921,36206;0,10824
346,76202;11,55896;1921,31512;0,10838
347,06202;11,56865;1921,16778;0,10851
347,36202;11,57890;1921,19293;0,10865
347,66202;11,58888;1920,84182;0,10879
347,96202;11,59913;1920,94222;0,10893
348,26202;11,60825;1919,92074;0,10906
348,56202;11,61879;1920,02729;0,10920
348,86202;11,62905;1920,24652;0,10933
349,16202;11,63845;1919,63557;0,10947
349,46202;11,64871;1919,34723;0,10961
349,76202;11,65782;1918,09069;0,10974
350,06202;11,66865;1919,88926;0,10988
350,36202;11,67890;1919,67003;0,11002
350,66202;11,68831;1918,76125;0,11015
350,96202;11,69856;1919,31594;0,11029
351,26202;11,70768;1918,24120;0,11041
351,56202;11,71851;1917,95602;0,11056
351,86202;11,72876;1918,25368;0,11070
352,16202;11,73873;1917,96534;0,11083
352,46202;11,74899;1918,19724;0,11097
352,76202;11,75896;1917,11318;0,11111
353,06202;11,76893;1917,11318;0,11124
353,36202;11,77862;1917,02545;0,11138
353,66202;11,78859;1916,72146;0,11151
353,96202;11,79885;1917,33241;0,11165
354,26202;11,80910;1917,46727;0,11179
354,56202;11,81908;1915,97249;0,11193
354,86202;11,82848;1916,48640;0,11206
355,16202;11,83902;1916,08854;0,11220
355,46202;11,84870;1915,09202;0,11233
355,76202;11,85925;1916,03526;0,11247
356,06202;11,86922;1915,24569;0,11261
356,36202;11,87805;1914,11134;0,11274
356,66202;11,88887;1915,92555;0,11288
356,96202;11,89828;1914,88527;0,11302
357,26202;11,90882;1915,97883;0,11316
357,56202;11,91850;1915,18925;0,11330
357,86202;11,92762;1913,80419;0,11342
358,16202;11,93845;1914,72862;0,11357
358,46202;11,94785;1913,14612;0,11370
358,76202;11,95896;1914,50305;0,11385
359,06202;11,96865;1914,45593;0,11398
359,36202;11,97890;1913,64754;0,11411
359,66202;11,98859;1913,38751;0,11425
359,96202;11,99856;1914,03925;0,11439
360,26202;12,00910;1913,79488;0,11453
360,56202;12,01851;1913,17759;0,11466
360,86202;12,02933;1912,80786;0,11480
361,16202;12,03845;1912,81717;0,11494
361,46202;12,04927;1912,44427;0,11508
361,76202;12,05868;1912,58844;0,11522
362,06202;12,06836;1911,46675;0,11535
362,36202;12,07919;1912,59794;0,11549
362,66202;12,08831;1911,84580;0,11562
362,96202;12,09885;1912,42862;0,11577
363,26202;12,10882;1912,14029;0,11591
363,56202;12,11851;1911,23486;0,11604
363,86202;12,12905;1911,63588;0,11618
364,16202;12,13816;1911,77689;0,11631
364,46202;12,14842;1911,29744;0,11645
364,76202;12,15782;1910,22903;0,11658
365,06202;12,16836;1910,47024;0,11672
365,36202;12,17862;1912,02443;0,11687
365,66202;12,18859;1910,96533;0,11700
365,96202;12,19885;1911,40715;0,11714
366,26202;12,20853;1910,98098;0,11728
366,56202;12,21907;1910,96850;0,11742
366,86202;12,22876;1910,58926;0,11756
367,16202;12,23873;1910,70214;0,11769
367,46202;12,24899;1910,37618;0,11783
367,76202;12,25811;1909,94069;0,11796
368,06202;12,26893;1910,55480;0,11810
368,36202;12,27805;1909,51768;0,11823
368,66202;12,28888;1910,64887;0,11838
368,96202;12,29885;1910,48905;0,11852
369,26202;12,30825;1909,29212;0,11866
369,56202;12,31936;1910,22269;0,11880
369,86202;12,32848;1908,71246;0,11893
370,16202;12,33873;1909,37985;0,11907
370,46202;12,34899;1908,88792;0,11921
370,76202;12,35839;1908,23618;0,11935
371,06202;12,36836;1908,71563;0,11949
371,36202;12,37776;1908,10766;0,11961
371,66202;12,38859;1909,44877;0,11976
371,96202;12,39828;1909,23251;0,11989
372,26202;12,40910;1909,01626;0,12004
372,56202;12,41907;1909,48006;0,12018
372,86202;12,42962;1909,12914;0,12032
373,16202;12,43930;1908,60275;0,12046
373,46202;12,44842;1907,92587;0,12059
373,76202;12,45925;1908,13579;0,12073
374,06202;12,46865;1907,99795;0,12087
374,36202;12,47890;1908,30193;0,12101
374,66202;12,48859;1908,00428;0,12114
374,96202;12,49799;1907,25848;0,12127
375,26202;12,50882;1908,37402;0,12142
375,56202;12,51850;1907,88526;0,12155
375,86202;12,52905;1907,69099;0,12169
376,16202;12,53902;1908,07320;0,12183
376,46202;12,54870;1907,28363;0,12197
376,76202;12,55868;1908,77505;0,12211
377,06202;12,56865;1907,27413;0,12224
377,36202;12,57862;1906,76656;0,12238
377,66202;12,58774;1906,03025;0,12251
377,96202;12,59799;1905,64487;0,12266
378,26202;12,60796;1906,02075;0,12280
378,56202;12,61851;1906,15561;0,12294
378,86202;12,62933;1906,30909;0,12309
379,16202;12,63873;1907,43394;0,12322
379,46202;12,64984;1907,25215;0,12337
379,76202;12,65896;1905,75756;0,12350
380,06202;12,66922;1905,74825;0,12364
380,36202;12,67919;1905,93936;0,12378
380,66202;12,68859;1906,60357;0,12391
380,96202;12,69913;1905,88608;0,12405
381,26202;12,70825;1904,27862;0,12418
381,56202;12,71850;1905,73260;0,12432
381,86202;12,72876;1905,71994;0,12446
382,16202;12,73873;1905,77321;0,12460
382,46202;12,74899;1904,91788;0,12474
382,76202;12,75839;1904,89590;0,12487
383,06202;12,76865;1905,37218;0,12501
383,36202;12,77862;1904,78619;0,12515
383,66202;12,78887;1905,05888;0,12529
383,96202;12,79856;1904,27862;0,12543
384,26202;12,80768;1902,73691;0,12555
384,56202;12,81822;1903,39815;0,12570
384,86202;12,82762;1902,99079;0,12583
385,16202;12,83873;1903,92453;0,12597
385,46202;12,84842;1904,29743;0,12611
385,76202;12,85924;1904,20970;0,12625
386,06202;12,86950;1903,08169;0,12639
386,36202;12,87833;1902,64303;0,12652
386,66202;12,88916;1903,29477;0,12666
386,96202;12,89828;1901,64335;0,12679
387,26202;12,90882;1903,08783;0,12693
387,56202;12,91879;1902,96266;0,12707
387,86202;12,92819;1902,13528;0,12720
388,16202;12,93930;1902,11032;0,12734
388,46202;12,94870;1902,10082;0,12747
388,76202;12,95896;1902,40163;0,12762
389,06202;12,96893;1902,05071;0,12776
389,36202;12,97919;1902,37667;0,12789
389,66202;12,98859;1901,26114;0,12803
389,96202;12,99856;1902,07902;0,12816
390,26202;13,00882;1901,45858;0,12830
390,56202;13,01822;1901,42095;0,12844
390,86202;13,02848;1901,62454;0,12858
391,16202;13,03788;1900,78486;0,12871
391,46202;13,04785;1900,68465;0,12884
391,76202;13,05868;1900,88507;0,12899
392,06202;13,06836;1900,48721;0,12913
392,36202;13,07919;1901,62770;0,12927
392,66202;13,08859;1900,97280;0,12940
392,96202;13,09885;1901,02607;0,12954
393,26202;13,10910;1901,06053;0,12968
393,56202;13,11822;1900,58108;0,12981
393,86202;13,12876;1900,60940;0,12995
394,16202;13,13788;1899,20869;0,13008
394,46202;13,14899;1899,89805;0,13023
394,76202;13,15896;1900,44325;0,13037
395,06202;13,16836;1899,35602;0,13050
395,36202;13,17890;1899,90755;0,13065
395,66202;13,18887;1899,56911;0,13078
395,96202;13,19913;1899,96697;0,13092
396,26202;13,20853;1899,65051;0,13106
396,56202;13,21879;1900,19570;0,13120
396,86202;13,22848;1899,66932;0,13134
397,16202;13,23873;1899,55663;0,13148
397,46202;13,24842;1898,80766;0,13161
397,76202;13,25782;1898,67299;0,13175
398,06202;13,26865;1899,55030;0,13189
398,36202;13,27833;1899,70061;0,13203
398,66202;13,28916;1899,91686;0,13217
398,96202;13,29913;1899,36850;0,13231
399,26202;13,30882;1898,81399;0,13245
399,56202;13,31936;1899,12096;0,13259
399,86202;13,32819;1897,82996;0,13272
400,16202;13,33845;1899,22750;0,13286
400,46202;13,34842;1898,80766;0,13300
400,76202;13,35867;1898,44109;0,13313
401,06202;13,36893;1898,34703;0,13328
401,36202;13,37890;1898,23732;0,13342
401,66202;13,38859;1897,91471;0,13355
401,96202;13,39856;1897,62954;0,13369
402,26202;13,40882;1897,67014;0,13383
402,56202;13,41879;1897,88006;0,13397
402,86202;13,42876;1897,68579;0,13410
403,16202;13,43873;1898,29692;0,13424
403,46202;13,44785;1896,43558;0,13437
403,76202;13,45924;1897,28793;0,13452
404,06202;13,46836;1898,22167;0,13466
404,36202;13,47862;1897,35368;0,13479
404,60202;13,48631;1600,73731;0,14095
404,61202;13,48659;1052,93319;0,15378