File: 02_Appendices/Appendix_C_Experimental_Data/C_1_Materials_Tests/C_1_1_Tensile_tests/C_1_1_1_Quantun_70_30/Specimen_RawData_6.csv
Text Inputs : Specimen label;"1"
Dimension : Length;50,00000;mm
Dimension : Final length;100,00000;mm
Test : Rate 1;2,00000;mm/min
General : Unique Identifier;"{0C58638E-AE79-4222-BB03-821CDA982B15}"

Time;Extension;Load;Strain 1
(sec);(mm);(N);(mm/mm)
0,00000;0,00028;16,28520;-0,00097
0,40000;0,00370;17,19390;-0,00097
0,80000;0,01368;21,59009;-0,00093
1,20000;0,03732;46,98024;-0,00074
1,60000;0,05299;62,13349;-0,00062
2,00000;0,06638;71,51810;-0,00052
2,40000;0,08034;83,00837;-0,00042
2,80000;0,09316;92,40551;-0,00033
3,20000;0,10684;99,31471;-0,00026
3,60000;0,11994;102,35414;-0,00023
4,00000;0,13276;102,99336;-0,00021
4,40000;0,14644;102,84922;-0,00020
4,80000;0,15897;102,89309;-0,00019
5,20000;0,17350;103,52917;-0,00019
5,60000;0,18689;104,61961;-0,00018
6,00000;0,20085;103,08736;-0,00018
6,40000;0,21311;103,55110;-0,00017
6,80000;0,22650;105,32776;-0,00016
7,20000;0,23989;104,71675;-0,00016
7,60000;0,25356;105,85417;-0,00015
8,00000;0,26695;105,72571;-0,00014
8,40000;0,27977;105,12721;-0,00014
8,80000;0,29345;105,36537;-0,00013
9,20000;0,30598;104,95175;-0,00013
9,60000;0,32023;105,86358;-0,00012
10,00000;0,33333;105,47503;-0,00012
10,40000;0,34672;105,78211;-0,00011
10,80000;0,36040;105,76644;-0,00011
11,20000;0,37293;106,53100;-0,00010
11,60000;0,38632;106,96654;-0,00009
12,00000;0,39971;106,98221;-0,00008
12,40000;0,41367;108,05071;-0,00007
12,80000;0,42707;108,42358;-0,00007
13,20000;0,44046;107,85330;-0,00005
13,60000;0,45328;110,72665;-0,00004
14,00000;0,46667;110,61385;-0,00003
14,40000;0,48006;111,86409;-0,00001
14,80000;0,49345;115,88740;0,00002
15,20000;0,50684;118,41608;0,00006
15,60000;0,51966;124,64219;0,00011
16,00000;0,53362;132,17182;0,00018
16,40000;0,54644;140,46913;0,00025
16,80000;0,56011;151,37658;0,00034
17,20000;0,57379;160,94607;0,00043
17,60000;0,58632;170,77875;0,00052
18,00000;0,59971;179,33614;0,00061
18,40000;0,61253;189,05603;0,00070
18,80000;0,62678;199,43079;0,00080
19,20000;0,64017;209,10995;0,00089
19,60000;0,65356;218,72330;0,00098
20,00000;0,66667;227,08327;0,00107
20,40000;0,68034;235,65632;0,00116
20,80000;0,69345;244,58345;0,00125
21,20000;0,70655;252,62383;0,00133
21,60000;0,71966;261,49768;0,00142
22,00000;0,73276;268,81737;0,00150
22,40000;0,74701;277,88549;0,00159
22,80000;0,75983;286,95990;0,00167
23,20000;0,77379;293,64349;0,00176
23,60000;0,78689;302,93723;0,00184
24,00000;0,79943;309,89971;0,00192
24,40000;0,81310;317,36353;0,00201
24,80000;0,82564;324,94955;0,00209
25,20000;0,83989;333,46934;0,00217
25,60000;0,85356;342,10819;0,00226
26,00000;0,86752;348,89206;0,00234
26,40000;0,88006;356,55955;0,00242
26,80000;0,89373;364,22077;0,00250
27,20000;0,90655;371,39319;0,00258
27,60000;0,92023;380,20439;0,00267
28,00000;0,93333;386,70311;0,00275
28,40000;0,94587;392,84145;0,00282
28,80000;0,96040;401,97857;0,00292
29,20000;0,97293;408,86267;0,00299
29,60000;0,98718;417,73655;0,00308
30,00000;1,00000;424,53920;0,00316
30,40000;1,01339;431,74922;0,00325
30,80000;1,02678;439,62351;0,00333
31,20000;1,03932;445,29187;0,00340
31,60000;1,05328;454,60444;0,00349
32,00000;1,06638;461,88966;0,00357
32,40000;1,08034;467,77423;0,00366
32,80000;1,09402;475,96814;0,00375
33,20000;1,10712;482,82091;0,00383
33,60000;1,11994;489,91502;0,00390
34,00000;1,13333;497,82377;0,00399
34,40000;1,14672;504,66717;0,00407
34,80000;1,15954;510,80869;0,00415
35,20000;1,17350;518,89918;0,00424
35,60000;1,18661;526,84867;0,00432
36,00000;1,20057;533,46646;0,00441
36,40000;1,21282;539,66125;0,00448
36,80000;1,22678;548,26252;0,00457
37,20000;1,24017;554,67351;0,00465
37,60000;1,25271;561,21922;0,00473
38,00000;1,26638;568,60158;0,00482
38,40000;1,27949;575,86175;0,00490
38,80000;1,29373;583,86135;0,00499
39,20000;1,30712;590,98676;0,00507
39,60000;1,32023;597,79882;0,00516
40,00000;1,33333;604,16912;0,00524
40,40000;1,34672;612,22515;0,00532
40,80000;1,36011;618,37607;0,00540
41,20000;1,37322;625,34478;0,00548
41,60000;1,38632;633,13451;0,00557
42,00000;1,40000;638,97832;0,00565
42,40000;1,41367;647,33205;0,00574
42,80000;1,42649;653,12260;0,00582
43,20000;1,43988;659,95976;0,00590
43,60000;1,45327;667,61156;0,00598
44,00000;1,46610;672,84750;0,00606
44,40000;1,47977;679,65020;0,00615
44,80000;1,49231;686,38078;0,00624
45,20000;1,50684;694,54964;0,00633
45,60000;1,52023;701,61549;0,00641
46,00000;1,53419;708,08604;0,00650
46,40000;1,54672;713,84213;0,00658
46,80000;1,56011;720,44111;0,00666
47,20000;1,57322;728,14622;0,00674
47,60000;1,58689;735,38441;0,00683
48,00000;1,60028;740,75200;0,00692
48,40000;1,61282;746,95619;0,00699
48,80000;1,62706;755,23783;0,00709
49,20000;1,63988;761,15686;0,00717
49,60000;1,65356;768,94653;0,00725
50,00000;1,66666;774,24832;0,00734
50,40000;1,68006;781,19827;0,00742
50,80000;1,69345;788,28288;0,00751
51,20000;1,70570;793,67552;0,00759
51,60000;1,71994;802,27368;0,00768
52,00000;1,73333;808,05477;0,00776
52,40000;1,74701;814,48462;0,00785
52,80000;1,76040;819,93677;0,00793
53,20000;1,77350;827,67950;0,00802
53,60000;1,78661;833,83974;0,00810
54,00000;1,80000;840,26325;0,00819
54,40000;1,81367;847,32287;0,00827
54,80000;1,82678;854,21018;0,00835
55,20000;1,84045;861,31366;0,00844
55,60000;1,85327;866,19863;0,00852
56,00000;1,86723;873,44628;0,00861
56,40000;1,87949;877,77982;0,00869
56,80000;1,89316;884,78616;0,00878
57,20000;1,90684;892,80456;0,00887
57,60000;1,91937;898,09066;0,00895
58,00000;1,93305;904,40763;0,00903
58,40000;1,94644;910,55539;0,00911
58,80000;1,96040;915,49372;0,00920
59,20000;1,97322;922,10211;0,00927
59,60000;1,98689;927,67645;0,00935
60,00000;2,00057;932,53637;0,00943
60,40000;2,01367;938,06377;0,00951
60,80000;2,02678;944,49669;0,00959
61,20000;2,04017;949,23442;0,00966
61,60000;2,05356;956,10293;0,00975
62,00000;2,06638;959,25517;0,00982
62,40000;2,08005;965,76950;0,00991
62,80000;2,09316;970,89577;0,00998
63,20000;2,10712;977,35692;0,01007
63,60000;2,11994;983,38248;0,01014
64,00000;2,13276;987,64710;0,01022
64,40000;2,14644;993,68207;0,01030
64,80000;2,15897;998,10334;0,01038
65,20000;2,17322;1004,90283;0,01046
65,60000;2,18689;1010,79056;0,01055
66,00000;2,20057;1016,37747;0,01063
66,40000;2,21310;1020,51357;0,01070
66,80000;2,22706;1027,54813;0,01078
67,20000;2,24017;1032,35170;0,01086
67,60000;2,25356;1038,46500;0,01095
68,00000;2,26695;1043,81377;0,01102
68,40000;2,27948;1048,13790;0,01110
68,80000;2,29344;1054,22931;0,01118
69,20000;2,30627;1058,86990;0,01126
69,60000;2,32051;1065,28709;0,01135
70,00000;2,33333;1070,11888;0,01142
70,40000;2,34672;1075,44567;0,01151
70,80000;2,36011;1080,44660;0,01158
71,20000;2,37265;1085,39434;0,01166
71,60000;2,38661;1091,39169;0,01174
72,00000;2,39943;1096,40835;0,01182
72,40000;2,41396;1102,75978;0,01191
72,80000;2,42735;1108,13361;0,01199
73,20000;2,44045;1112,83995;0,01207
73,60000;2,45299;1117,53382;0,01214
74,00000;2,46666;1123,34322;0,01223
74,40000;2,48005;1128,32226;0,01231
74,80000;2,49316;1132,80620;0,01239
75,20000;2,50712;1139,25161;0,01248
75,60000;2,51994;1143,65406;0,01255
76,00000;2,53390;1149,24097;0,01264
76,40000;2,54644;1153,89097;0,01272
76,80000;2,56011;1159,06429;0,01280
77,20000;2,57350;1164,28770;0,01288
77,60000;2,58604;1169,08494;0,01296
78,00000;2,59971;1174,16112;0,01304
78,40000;2,61253;1178,71715;0,01312
78,80000;2,62706;1185,66398;0,01321
79,20000;2,64045;1189,85642;0,01329
79,60000;2,65356;1195,52165;0,01337
80,00000;2,66695;1199,48545;0,01345
80,40000;2,68034;1204,92820;0,01354
80,80000;2,69344;1209,12706;0,01361
81,20000;2,70655;1214,10917;0,01369
81,60000;2,71966;1218,65580;0,01377
82,00000;2,73333;1223,55958;0,01386
82,40000;2,74729;1229,86091;0,01394
82,80000;2,76011;1234,06909;0,01402
83,20000;2,77350;1238,52482;0,01410
83,60000;2,78661;1243,18423;0,01419
84,00000;2,79971;1248,46408;0,01427
84,40000;2,81282;1253,02318;0,01435
84,80000;2,82564;1257,43188;0,01443
85,20000;2,84017;1263,35407;0,01452
85,60000;2,85356;1267,75028;0,01460
86,00000;2,86723;1273,74455;0,01468
86,40000;2,88005;1277,60489;0,01476
86,80000;2,89344;1282,54946;0,01485
87,20000;2,90655;1286,21552;0,01493
87,60000;2,92022;1291,54865;0,01502
88,00000;2,93333;1296,43995;0,01510
88,40000;2,94615;1300,18434;0,01517
88,80000;2,96011;1305,76817;0,01526
89,20000;2,97322;1310,27400;0,01534
89,60000;2,98689;1315,74180;0,01543
90,00000;3,00000;1318,93475;0,01551
90,40000;3,01339;1324,47472;0,01560
90,80000;3,02678;1329,28761;0,01568
91,20000;3,03874;1332,65294;0,01576
91,60000;3,05327;1338,48740;0,01585
92,00000;3,06666;1342,76766;0,01593
92,40000;3,08034;1347,87513;0,01602
92,80000;3,09401;1352,23996;0,01611
93,20000;3,10683;1356,68628;0,01619
93,60000;3,12022;1360,54037;0,01628
94,00000;3,13305;1365,33454;0,01636
94,40000;3,14672;1370,28536;0,01645
94,80000;3,16011;1374,45591;0,01653
95,20000;3,17379;1379,01511;0,01662
95,60000;3,18661;1383,41440;0,01670
96,00000;3,20057;1388,31511;0,01679
96,40000;3,21282;1391,89661;0,01687
96,80000;3,22649;1396,78475;0,01696
97,20000;3,23988;1401,56951;0,01705
97,60000;3,25270;1405,52390;0,01714
98,00000;3,26638;1409,89190;0,01723
98,40000;3,27948;1414,52309;0,01731
98,80000;3,29401;1420,10683;0,01740
99,20000;3,30655;1424,02053;0,01749
99,60000;3,32022;1428,61726;0,01758
100,00000;3,33333;1432,39303;0,01766
100,40000;3,34672;1437,63209;0,01775
100,80000;3,36011;1440,69660;0,01784
101,20000;3,37350;1445,65683;0,01792
101,60000;3,38689;1450,40397;0,01801
102,00000;3,40000;1454,11706;0,01810
102,40000;3,41396;1459,01768;0,01819
102,80000;3,42649;1462,65561;0,01827
103,20000;3,44017;1466,55357;0,01836
103,60000;3,45327;1470,56123;0,01845
104,00000;3,46638;1475,10469;0,01854
104,40000;3,47977;1479,01215;0,01863
104,80000;3,49230;1482,87248;0,01871
105,20000;3,50683;1488,29017;0,01881
105,60001;3,52022;1491,66174;0,01890
106,00001;3,53390;1496,23659;0,01899
106,40001;3,54643;1499,31982;0,01907
106,80001;3,56011;1503,90090;0,01917
107,20001;3,57322;1508,33782;0,01926
107,60001;3,58689;1512,53035;0,01935
108,00001;3,60028;1516,65080;0,01944
108,40001;3,61310;1519,88138;0,01952
108,80001;3,62678;1524,25254;0,01962
109,20001;3,63960;1527,86532;0,01971
109,60001;3,65384;1532,46839;0,01980
110,00001;3,66638;1536,19396;0,01989
110,40001;3,68034;1540,81266;0,01999
110,80001;3,69344;1544,46941;0,02008
111,20001;3,70598;1547,80643;0,02016
111,60001;3,71994;1551,85796;0,02026
112,00001;3,73276;1555,78107;0,02035
112,40001;3,74700;1559,94222;0,02045
112,80001;3,76011;1563,58015;0,02054
113,20001;3,77350;1567,88230;0,02063
113,60001;3,78689;1571,18812;0,02072
114,00001;3,80000;1575,90378;0,02082
114,40001;3,81339;1578,97156;0,02091
114,80001;3,82649;1582,96656;0,02100
115,20001;3,84045;1586,69539;0,02110
115,60001;3,85299;1589,61881;0,02118
116,00001;3,86695;1594,65745;0,02129
116,40001;3,87977;1597,50562;0,02137
116,80001;3,89344;1602,77616;0,02147
117,20001;3,90683;1606,38895;0,02157
117,60001;3,91965;1609,45337;0,02166
118,00001;3,93304;1613,88721;0,02176
118,40001;3,94586;1616,85459;0,02185
118,80001;3,96011;1620,69928;0,02195
119,20001;3,97350;1624,32771;0,02204
119,60001;3,98689;1629,02791;0,02214
120,00001;4,00028;1631,79785;0,02224
120,40001;4,01367;1636,57628;0,02234
120,80001;4,02706;1639,76625;0,02243
121,20001;4,03960;1642,55183;0,02252
121,60001;4,05327;1646,63158;0,02262
122,00001;4,06638;1650,56717;0,02272
122,40001;4,08034;1654,10470;0,02283
122,80001;4,09344;1657,62678;0,02292
123,20001;4,10712;1661,48394;0,02302
123,60001;4,12022;1665,01850;0,02312
124,00001;4,13276;1668,84754;0,02321
124,40001;4,14643;1671,55787;0,02332
124,80001;4,15897;1674,57853;0,02341
125,20001;4,17350;1679,38210;0,02352
125,60001;4,18689;1682,29304;0,02362
126,00001;4,20085;1686,67976;0,02372
126,40001;4,21339;1689,28374;0,02382
126,80001;4,22678;1692,45470;0,02392
127,20001;4,23988;1695,90153;0,02402
127,60001;4,25356;1699,93117;0,02412
128,00001;4,26666;1702,55061;0,02422
128,40001;4,27948;1705,40512;0,02431
128,80001;4,29373;1710,02708;0,02443
129,20001;4,30598;1712,20154;0,02452
129,60001;4,32051;1716,97382;0,02463
130,00001;4,33333;1719,81901;0,02473
130,40001;4,34672;1722,83966;0,02484
130,80001;4,35982;1726,07321;0,02494
131,20001;4,37236;1728,55798;0,02503
131,60001;4,38660;1731,81053;0,02514
132,00001;4,39943;1735,29182;0,02524
132,40001;4,41396;1739,15531;0,02536
132,80001;4,42763;1742,63977;0,02546
133,20001;4,44017;1745,77311;0,02556
133,60001;4,45299;1747,55920;0,02566
134,00001;4,46666;1751,13436;0,02577
134,40001;4,48005;1755,16717;0,02588
134,80001;4,49316;1757,39508;0,02598
135,20001;4,50712;1761,40890;0,02609
135,60001;4,52022;1763,76831;0,02619
136,00001;4,53390;1766,85173;0,02630
136,40001;4,54615;1769,23927;0,02640
136,80001;4,56011;1772,89601;0,02651
137,20001;4,57350;1776,00440;0,02662
137,60001;4,58604;1777,84991;0,02672
138,00001;4,59971;1781,24979;0,02683
138,40001;4,61282;1783,93517;0,02694
138,80001;4,62706;1787,80798;0,02706
139,20001;4,64045;1790,63119;0,02716
139,60001;4,65356;1792,85593;0,02727
140,00001;4,66638;1795,74192;0,02737
140,40001;4,68034;1798,61840;0,02749
140,80001;4,69344;1801,41330;0,02759
141,20001;4,70655;1804,13313;0,02770
141,60001;4,71965;1806,69948;0,02781
142,00001;4,73304;1809,60093;0,02792
142,40001;4,74729;1813,16994;0,02804
142,80001;4,75982;1814,46727;0,02814
143,20001;4,77321;1817,61626;0,02825
143,60001;4,78660;1819,85665;0,02836
144,00001;4,79942;1822,61728;0,02847
144,40001;4,81310;1825,05511;0,02858
144,80001;4,82592;1828,32014;0,02869
145,20001;4,84017;1830,99285;0,02881
145,60001;4,85356;1833,51208;0,02893
146,00001;4,86752;1835,63661;0,02904
146,40001;4,87977;1838,25623;0,02914
146,80001;4,89316;1841,47414;0,02926
147,20001;4,90655;1843,26023;0,02937
147,60001;4,92051;1846,56288;0,02950
148,00001;4,93361;1848,50879;0,02961
148,40001;4,94615;1850,12873;0,02971
148,80001;4,96039;1853,88885;0,02983
149,20001;4,97293;1855,86289;0,02994
149,60001;4,98689;1857,91850;0,03006
150,00001;4,99971;1859,88303;0,03018
150,40001;5,01367;1863,98476;0,03030
150,80001;5,02678;1865,69560;0,03041
151,20001;5,03931;1867,29357;0,03052
151,60001;5,05356;1870,53047;0,03064
152,00001;5,06638;1872,17239;0,03076
152,40001;5,08034;1875,14592;0,03088
152,80001;5,09401;1876,83180;0,03100
153,20001;5,10683;1878,95000;0,03111
153,60001;5,11965;1881,06820;0,03123
154,00001;5,13333;1883,36503;0,03135
154,40001;5,14700;1885,87792;0,03147
154,80001;5,15982;1888,14979;0,03159
155,20001;5,17378;1890,65952;0,03171
155,60001;5,18660;1891,50870;0,03183
156,00001;5,20056;1893,60809;0,03195
156,40001;5,21253;1895,58528;0,03206
156,80001;5,22649;1897,67852;0,03219
157,20001;5,24017;1900,45778;0,03232
157,60001;5,25270;1901,95236;0,03243
158,00001;5,26638;1904,39336;0,03255
158,40001;5,27920;1906,16995;0,03267
158,80001;5,29373;1908,35726;0,03280
159,20001;5,30655;1910,22474;0,03292
159,60001;5,32022;1912,03263;0,03305
160,00001;5,33361;1913,74049;0,03317
160,40001;5,34700;1915,94642;0,03329
160,80001;5,36011;1917,09623;0,03341
161,20001;5,37350;1919,31166;0,03353
161,60001;5,38632;1920,80308;0,03366
162,00001;5,39971;1922,39806;0,03378
162,40001;5,41367;1925,72884;0,03391
162,80001;5,42649;1925,68824;0,03403
163,20001;5,44045;1927,93161;0,03416
163,60001;5,45327;1929,97772;0,03429
164,00001;5,46609;1931,00553;0,03441
164,40001;5,47977;1933,23344;0,03454
164,80001;5,49230;1933,84439;0,03466
165,20001;5,50683;1936,63947;0,03480
165,60001;5,51994;1938,13089;0,03492
166,00001;5,53390;1939,80727;0,03505
166,40001;5,54700;1942,09479;0,03518
166,80001;5,56039;1943,83375;0,03531
167,20001;5,57350;1944,36647;0,03543
167,60001;5,58717;1946,50982;0,03557
168,00001;5,60028;1948,14224;0,03569
168,40001;5,61281;1948,20799;0,03581
168,80001;5,62677;1950,74622;0,03595
169,20001;5,63959;1951,82711;0,03607
169,60001;5,65384;1953,61953;0,03621
170,00001;5,66638;1954,10196;0,03634
170,40001;5,68034;1956,67781;0,03647
170,80001;5,69316;1957,38282;0,03660
171,20001;5,70569;1957,62720;0,03673
171,60001;5,71965;1959,58558;0,03686
172,00001;5,73276;1961,32138;0,03699
172,40001;5,74700;1962,73774;0,03713
172,80001;5,76039;1963,93169;0,03726
173,20001;5,77378;1965,76770;0,03740
173,60001;5,78660;1966,47290;0,03752
174,00001;5,79999;1967,32823;0,03765
174,40001;5,81338;1968,52200;0,03779
174,80001;5,82649;1969,27730;0,03792
175,20001;5,84016;1970,72793;0,03806
175,60001;5,85299;1972,00328;0,03819
176,00001;5,86723;1973,46658;0,03833
176,40001;5,87977;1973,98365;0,03846
176,80001;5,89316;1975,42813;0,03859
177,20001;5,90683;1977,14530;0,03873
177,60001;5,91937;1977,26432;0,03886
178,00001;5,93276;1977,66535;0,03900
178,40001;5,94586;1978,89693;0,03913
178,80001;5,96068;1980,46677;0,03928
179,20001;5,97321;1981,85164;0,03941
179,60001;5,98689;1982,56616;0,03956
180,00001;6,00056;1984,01678;0,03969
180,40001;6,01367;1984,87546;0,03983
180,80001;6,02649;1984,99132;0,03996
181,20001;6,03988;1986,31044;0,04010
181,60001;6,05327;1988,05891;0,04024
182,00001;6,06666;1988,93640;0,04038
182,40001;6,08034;1989,48160;0,04053
182,80001;6,09373;1990,74745;0,04067
183,20001;6,10712;1991,36790;0,04081
183,60001;6,11994;1992,33610;0,04095
184,00001;6,13304;1992,90644;0,04108
184,40001;6,14643;1993,52689;0,04122
184,80001;6,15897;1994,12219;0,04136
185,20001;6,17350;1995,58232;0,04151
185,60001;6,18717;1996,27802;0,04166
186,00001;6,20056;1997,74131;0,04180
186,40001;6,21310;1997,14582;0,04193
186,80001;6,22677;1998,78477;0,04208
187,20001;6,23988;1998,03580;0,04222
187,60001;6,25327;1999,74347;0,04237
188,00001;6,26695;2000,97803;0,04251
188,40001;6,27948;2000,17281;0,04265
188,80001;6,29344;2002,68887;0,04280
189,20001;6,30655;2002,51341;0,04294
189,60001;6,32051;2003,87649;0,04310
190,00001;6,33304;2003,65093;0,04323
190,40001;6,34672;2004,43435;0,04338
190,80001;6,36011;2006,31749;0,04353
191,20001;6,37236;2005,09541;0,04367
191,60001;6,38603;2005,33047;0,04381
192,00001;6,39971;2007,20727;0,04397
192,40001;6,41424;2008,26637;0,04412
192,80001;6,42706;2009,40389;0,04426
193,20001;6,44016;2008,34479;0,04441
193,60001;6,45327;2008,86801;0,04455
194,00001;6,46637;2009,38508;0,04470
194,40001;6,48005;2009,86769;0,04485
194,80001;6,49344;2010,76064;0,04500
195,20001;6,50712;2011,63497;0,04516
195,60001;6,51965;2010,53824;0,04530
196,00001;6,53390;2012,20196;0,04545
196,40001;6,54643;2012,08927;0,04560
196,80001;6,56011;2013,06064;0,04575
197,20001;6,57350;2013,41156;0,04590
197,60001;6,58603;2013,04499;0,04605
198,00001;6,59999;2014,65543;0,04620
198,40001;6,61253;2013,35829;0,04635
198,80001;6,62706;2014,54889;0,04651
199,20001;6,64045;2015,98089;0,04666
199,60001;6,65355;2015,79295;0,04681
200,00001;6,66666;2015,64878;0,04696
200,40001;6,68033;2016,26606;0,04712
200,80001;6,69344;2016,41023;0,04726
201,20001;6,70655;2015,99970;0,04741
201,60001;6,72022;2016,37261;0,04757
202,00001;6,73304;2016,46667;0,04772
202,40001;6,74700;2017,72004;0,04788
202,80001;6,75982;2016,67026;0,04802
203,20001;6,77350;2017,19366;0,04818
203,60001;6,78660;2017,67609;0,04833
204,00001;6,79971;2017,56638;0,04849
204,40001;6,81310;2017,72004;0,04864
204,80001;6,82592;2018,11474;0,04879
205,20001;6,83988;2018,82925;0,04895
205,60001;6,85355;2018,97956;0,04911
206,00001;6,86751;2019,41822;0,04927
206,40001;6,87976;2018,19316;0,04941
206,80001;6,89344;2018,76033;0,04957
207,20001;6,90683;2018,99838;0,04973
207,60001;6,92022;2019,27423;0,04989
208,00001;6,93361;2019,25859;0,05004
208,40001;6,94643;2018,86371;0,05019
208,72001;6,95783;2019,85072;0,05033
209,12001;6,97036;2019,07679;0,05048
209,52001;6,98404;2020,25175;0,05064
209,92001;6,99714;2019,15503;0,05080
210,32001;7,01110;2020,43988;0,05096
210,72001;7,02392;2020,00421;0,05111
211,12001;7,03674;2020,58386;0,05127
211,52001;7,05013;2020,62465;0,05143
211,92001;7,06381;2019,75983;0,05159
212,32001;7,07777;2020,66861;0,05175
212,72001;7,09088;2020,61832;0,05191
213,12001;7,10455;2021,13539;0,05207
213,52001;7,11709;2020,81259;0,05222
213,92001;7,13105;2020,88784;0,05239
214,32001;7,14444;2020,92547;0,05255
214,72001;7,15726;2020,58088;0,05271
215,12001;7,17065;2020,09510;0,05287
215,52001;7,18375;2021,03835;0,05302
215,92001;7,19771;2020,95062;0,05319
216,32001;7,21025;2019,20830;0,05335
216,72001;7,22421;2020,50880;0,05351
217,12001;7,23731;2021,00389;0,05368
217,52001;7,25042;2020,13589;0,05384
217,92001;7,26324;2019,59386;0,05399
218,32001;7,27663;2018,89500;0,05416
218,72001;7,29059;2020,53059;0,05432
219,12001;7,30398;2020,04500;0,05448
219,52001;7,31794;2020,82526;0,05466
219,92001;7,33048;2020,89101;0,05481
220,32001;7,34415;2020,23610;0,05498
220,72001;7,35726;2019,89766;0,05513
221,12001;7,37036;2019,38692;0,05530
221,52001;7,38404;2019,96043;0,05546
221,92001;7,39714;2018,78231;0,05562
222,32001;7,41110;2019,52476;0,05579
222,72001;7,42392;2019,43405;0,05596
223,12001;7,43760;2019,80378;0,05613
223,52001;7,45042;2018,78231;0,05629
223,92001;7,46381;2019,27423;0,05646
224,32001;7,47663;2018,14622;0,05661
224,72001;7,49002;2018,54724;0,05678
225,12001;7,50370;2018,73519;0,05695
225,52001;7,51737;2018,99521;0,05712
225,92001;7,53133;2018,95777;0,05729
226,32001;7,54358;2017,47566;0,05745
226,72001;7,55783;2018,44703;0,05762
227,12001;7,57065;2018,02384;0,05778
227,52001;7,58432;2018,23395;0,05795
227,92001;7,59714;2017,08078;0,05811
228,32001;7,61025;2016,17517;0,05828
228,72001;7,62421;2017,16535;0,05845
229,12001;7,63703;2016,99305;0,05861
229,52001;7,65127;2016,48232;0,05879
229,92001;7,66409;2016,24725;0,05895
230,32001;7,67748;2016,36329;0,05912
230,72001;7,69002;2014,85287;0,05928
231,12001;7,70313;2014,09142;0,05945
231,52001;7,71652;2014,10409;0,05961
231,92001;7,73048;2015,12873;0,05978
232,32001;7,74472;2015,27905;0,05996
232,72001;7,75754;2014,75881;0,06013
233,12001;7,77122;2014,68989;0,06029
233,52001;7,78375;2013,35512;0,06046
233,92001;7,79743;2013,53058;0,06063
234,32001;7,81053;2013,59950;0,06079
234,72001;7,82392;2012,84438;0,06096
235,12001;7,83731;2012,00768;0,06113
235,52001;7,85013;2012,66259;0,06130
235,92001;7,86438;2012,01085;0,06147
236,32001;7,87720;2012,23642;0,06164
236,72001;7,89087;2011,82906;0,06181
237,12001;7,90370;2010,48180;0,06198
237,52001;7,91708;2011,11473;0,06215
237,92001;7,92991;2009,18764;0,06231
238,32001;7,94358;2010,18415;0,06249
238,72001;7,95754;2011,03948;0,06267
239,12001;7,97065;2009,30052;0,06283
239,52001;7,98461;2010,31882;0,06301
239,92001;7,99686;2008,21012;0,06317
240,32001;8,01082;2008,34163;0,06334
240,72001;8,02364;2008,62046;0,06351
241,12001;8,03674;2008,00635;0,06368
241,52001;8,05070;2008,27587;0,06386
241,92001;8,06409;2008,25073;0,06403
242,32001;8,07805;2008,25073;0,06421
242,72001;8,09059;2006,28620;0,06437
243,12001;8,10398;2006,60266;0,06454
243,52001;8,11708;2006,90962;0,06472
243,92001;8,13047;2005,94142;0,06489
244,32001;8,14358;2004,96390;0,06506
244,72001;8,15669;2005,44316;0,06524
245,12001;8,17036;2005,00134;0,06541
245,52001;8,18404;2005,65625;0,06558
245,92001;8,19771;2005,39306;0,06576
246,32001;8,21025;2003,25921;0,06592
246,72001;8,22421;2004,21810;0,06610
247,12001;8,23731;2004,11472;0,06627
247,52001;8,25099;2004,12404;0,06645
247,92001;8,26409;2003,89531;0,06662
248,32001;8,27691;2001,61412;0,06679
248,72001;8,29116;2002,73599;0,06697
249,12001;8,30369;2001,90879;0,06714
249,52001;8,31765;2002,51341;0,06732
249,92001;8,33019;2000,48927;0,06749
250,32001;8,34387;2000,87149;0,06767
250,72001;8,35697;1999,65574;0,06783
251,12001;8,37036;2000,20410;0,06802
251,52001;8,38347;1998,99152;0,06819
251,92001;8,39743;2000,42035;0,06837
252,32001;8,41139;2000,27619;0,06855
252,72001;8,42421;1999,44898;0,06872
253,12001;8,43788;1998,58099;0,06890
253,52001;8,45013;1998,55287;0,06906
253,92001;8,46438;1998,29899;0,06925
254,32001;8,47748;1998,18928;0,06942
254,72001;8,49030;1996,77609;0,06959
255,12001;8,50398;1997,82271;0,06977
255,52001;8,51737;1996,61646;0,06995
255,92001;8,53104;1996,91094;0,07012
256,32001;8,54358;1995,29100;0,07029
256,72001;8,55754;1995,64807;0,07048
257,12001;8,57065;1995,68886;0,07065
257,52001;8,58375;1994,59214;0,07083
257,92001;8,59657;1993,78058;0,07100
258,32001;8,61025;1993,90277;0,07118
258,72001;8,62392;1994,34459;0,07136
259,12001;8,63703;1993,29183;0,07153
259,52001;8,65127;1994,47945;0,07172
259,92001;8,66381;1993,21341;0,07188
260,32001;8,67748;1992,28283;0,07206
260,72001;8,69059;1992,80921;0,07223
261,12001;8,70398;1991,38671;0,07241
261,52001;8,71737;1991,38355;0,07259
261,92001;8,73048;1989,96402;0,07276
262,32001;8,74443;1990,27117;0,07294
262,72001;8,75697;1989,38437;0,07311
263,12001;8,77008;1988,92690;0,07328
263,52001;8,78375;1988,81105;0,07346
263,92001;8,79714;1988,12168;0,07364
264,32001;8,80996;1987,38836;0,07381
264,72001;8,82335;1988,26268;0,07399
265,12001;8,83703;1987,88978;0,07417
265,52001;8,85070;1987,16596;0,07435
265,92001;8,86438;1986,87464;0,07453
266,32001;8,87691;1985,85000;0,07470
266,72001;8,89144;1985,85615;0,07489
267,12001;8,90398;1985,76525;0,07506
267,52001;8,91765;1985,77791;0,07524
267,92001;8,93076;1985,34541;0,07541
268,32001;8,94330;1984,00430;0,07559
268,72001;8,95725;1984,31462;0,07577
269,12001;8,97036;1983,64407;0,07595
269,52001;8,98461;1983,34623;0,07613
269,92001;8,99714;1983,20523;0,07630
270,32001;9,01110;1982,78856;0,07649
270,72001;9,02392;1982,67568;0,07666
271,12001;9,03674;1981,55399;0,07683
271,52001;9,05013;1981,93304;0,07701
271,92001;9,06352;1981,72312;0,07719
272,32001;9,07748;1981,68866;0,07738
272,72001;9,09087;1981,38785;0,07755
273,12001;9,10426;1980,87711;0,07773
273,52001;9,11708;1980,50123;0,07791
273,92001;9,13076;1979,37321;0,07809
274,32001;9,14415;1979,84632;0,07827
274,72001;9,15725;1978,39551;0,07844
275,12001;9,17065;1978,64622;0,07863
275,52001;9,18347;1978,44561;0,07880
275,92001;9,19800;1977,94121;0,07899
276,32001;9,21053;1976,89459;0,07916
276,72001;9,22421;1977,21422;0,07935
277,12001;9,23731;1976,89459;0,07952
277,52001;9,25042;1976,92271;0,07971
277,92001;9,26324;1974,55082;0,07987
278,32001;9,27634;1974,99879;0,08005
278,72001;9,29087;1975,95768;0,08024
279,12001;9,30369;1975,22137;0,08042
279,52001;9,31794;1975,68517;0,08061
279,92001;9,33047;1974,03692;0,08078
280,32001;9,34443;1974,77322;0,08096
280,72001;9,35668;1973,04040;0,08113
281,12001;9,37036;1973,56064;0,08132
281,52001;9,38404;1974,23752;0,08150
281,92001;9,39714;1972,58610;0,08168
282,32001;9,41110;1973,51985;0,08186
282,72001;9,42392;1972,34489;0,08204
283,12001;9,43760;1972,41697;0,08222
283,52001;9,45013;1971,59909;0,08239
283,92001;9,46381;1971,92505;0,08258
284,32001;9,47691;1970,91922;0,08276
284,72001;9,49002;1971,12598;0,08294
285,12001;9,50369;1970,88160;0,08312
285,52001;9,51794;1971,53334;0,08331
285,92001;9,53133;1970,65584;0,08349
286,32001;9,54358;1970,12648;0,08367
286,72001;9,55811;1970,24550;0,08385
287,12001;9,57036;1968,99530;0,08403
287,52001;9,58432;1969,38682;0,08421
287,92001;9,59714;1968,50952;0,08439
288,32001;9,61053;1968,65685;0,08457
288,72001;9,62449;1967,80767;0,08476
289,12001;9,63703;1967,78253;0,08493
289,52001;9,65099;1967,72926;0,08512
289,92001;9,66352;1966,19090;0,08529
290,32001;9,67720;1966,81432;0,08547
290,72001;9,69030;1965,87127;0,08565
291,12001;9,70312;1965,17874;0,08583
291,52001;9,71651;1965,53282;0,08601
291,92001;9,73047;1965,23201;0,08619
292,32001;9,74472;1965,63303;0,08638
292,72001;9,75725;1964,21370;0,08655
293,12001;9,77121;1964,08201;0,08674
293,52001;9,78375;1963,42710;0,08691
293,92001;9,79771;1963,12629;0,08710
294,32001;9,81082;1963,13579;0,08728
294,72001;9,82392;1962,89122;0,08746
295,12001;9,83760;1963,24233;0,08764
295,52001;9,85013;1962,62803;0,08782
295,92001;9,86438;1962,02025;0,08800
296,32001;9,87720;1961,94500;0,08818
296,72001;9,89059;1961,60655;0,08836
297,12001;9,90369;1960,36268;0,08854
297,52001;9,91737;1961,13661;0,08873
297,92001;9,92990;1960,22484;0,08890
298,32001;9,94358;1959,96780;0,08908
298,72001;9,95782;1960,35318;0,08927
299,12001;9,97064;1959,75471;0,08945
299,52001;9,98460;1959,74857;0,08964
299,92001;9,99685;1958,32904;0,08980
300,32001;10,01110;1958,49203;0,09000
300,72001;10,02364;1958,31023;0,09017
301,12001;10,03703;1958,09081;0,09036
301,52001;10,05099;1957,86841;0,09054
301,92001;10,06381;1957,40778;0,09072
302,32001;10,07777;1957,36699;0,09090
302,72001;10,09059;1956,29857;0,09108
303,12001;10,10398;1956,59939;0,09126
303,52001;10,11680;1955,82546;0,09144
303,92001;10,13047;1956,20153;0,09163
304,32001;10,14358;1955,29908;0,09180
304,72001;10,15668;1954,06135;0,09199
305,12001;10,17036;1954,44040;0,09217
305,52001;10,18403;1954,52813;0,09235
305,92001;10,19771;1954,32771;0,09254
306,32001;10,20996;1953,27178;0,09271
306,72001;10,22449;1953,82312;0,09291
307,12001;10,23731;1953,63201;0,09308
307,52001;10,25099;1953,24980;0,09327
307,92001;10,26381;1953,10246;0,09345
308,32001;10,27691;1951,75819;0,09363
308,72001;10,29116;1952,29724;0,09381
309,12001;10,30369;1951,39162;0,09399
309,52001;10,31765;1952,67014;0,09418
309,92001;10,33047;1951,20983;0,09435
310,32001;10,34415;1951,59540;0,09455
310,72001;10,35697;1950,79632;0,09472
311,12001;10,37036;1951,20368;0,09491
311,52001;10,38346;1950,09746;0,09509
311,92001;10,39714;1950,85891;0,09527
312,32001;10,41110;1950,46104;0,09546
312,72001;10,42392;1950,38896;0,09564
313,12001;10,43788;1949,48968;0,09583
313,52001;10,45042;1949,12925;0,09600
313,92001;10,46438;1948,83794;0,09619
314,32001;10,47748;1949,02271;0,09637
314,72001;10,49030;1948,01074;0,09655
315,12001;10,50426;1948,46820;0,09674
315,52001;10,51680;1947,58140;0,09692
315,92002;10,53047;1947,88538;0,09710
316,32002;10,54386;1948,27076;0,09729
316,72002;10,55754;1948,14540;0,09748
317,12002;10,57093;1948,17986;0,09766
317,52002;10,58375;1947,55625;0,09784
317,92002;10,59657;1945,89868;0,09801
318,32002;10,61025;1945,22496;0,09820
318,72002;10,62392;1946,67261;0,09839
319,12002;10,63731;1946,15256;0,09857
319,52002;10,65127;1945,92699;0,09876
319,92002;10,66381;1944,63283;0,09893
320,32002;10,67777;1944,92731;0,09912
320,72002;10,69030;1944,03119;0,09930
321,12002;10,70369;1943,61135;0,09948
321,52002;10,71737;1944,31636;0,09966
321,92002;10,73047;1943,98426;0,09984
322,32002;10,74443;1943,14755;0,10003
322,72002;10,75697;1943,18201;0,10021
323,12002;10,77064;1942,53661;0,10039
323,52002;10,78375;1942,10727;0,10057
323,92002;10,79742;1941,67793;0,10076
324,32002;10,80996;1941,22363;0,10093
324,72002;10,82335;1941,03569;0,10112
325,12002;10,83702;1942,18252;0,10130
325,52002;10,85070;1941,58405;0,10149
325,92002;10,86494;1941,92547;0,10168
326,32002;10,87691;1940,98875;0,10186
326,72002;10,89116;1940,48099;0,10204
327,12002;10,90398;1940,90717;0,10222
327,52002;10,91765;1940,04234;0,10241
327,92002;10,93047;1939,61300;0,10258
328,32002;10,94301;1938,30337;0,10276
328,72002;10,95782;1940,17403;0,10296
329,12002;10,97036;1938,63865;0,10313
329,52002;10,98460;1939,11493;0,10332
329,92002;10,99714;1938,78580;0,10350
330,32002;11,01081;1937,93364;0,10369
330,72002;11,02335;1937,47617;0,10386
331,12002;11,03646;1936,60818;0,10405
331,52002;11,04985;1936,85573;0,10423
331,92002;11,06409;1938,59152;0,10443
332,32002;11,07834;1937,99306;0,10462
332,72002;11,09116;1937,21596;0,10479
333,12002;11,10455;1936,63631;0,10498
333,52002;11,11680;1936,02853;0,10515
333,92002;11,13076;1935,87169;0,10534
334,32002;11,14443;1935,85921;0,10552
334,72002;11,15697;1934,95359;0,10570
335,12002;11,17093;1935,06964;0,10589
335,52002;11,18403;1935,57404;0,10607
335,92002;11,19771;1935,60552;0,10625
336,32002;11,21024;1934,47731;0,10644
336,72002;11,22420;1934,43988;0,10662
337,12002;11,23731;1934,93795;0,10681
337,52002;11,25013;1933,88835;0,10699
337,92002;11,26295;1933,05165;0,10716
338,32002;11,27691;1933,82259;0,10736
338,72002;11,29087;1933,79428;0,10755
339,12002;11,30426;1933,20215;0,10773
339,52002;11,31794;1933,93845;0,10792
339,92002;11,33019;1932,58170;0,10809
340,32002;11,34415;1932,77597;0,10828
340,72002;11,35697;1931,79511;0,10846
341,12002;11,37036;1932,64745;0,10865
341,52002;11,38403;1931,32516;0,10883
341,92002;11,39742;1931,97373;0,10902
342,32002;11,41138;1931,66044;0,10921
342,72002;11,42392;1931,78263;0,10939
343,12002;11,43731;1931,59468;0,10957
343,52002;11,45013;1929,94326;0,10975
343,92002;11,46381;1930,64213;0,10994
344,32002;11,47634;1929,36361;0,11012
344,72002;11,49002;1929,84939;0,11030
345,12002;11,50369;1930,42271;0,11049
345,52002;11,51765;1930,89284;0,11068
345,92002;11,53133;1930,07495;0,11087
346,32002;11,54386;1929,58619;0,11105
346,72002;11,55782;1929,30419;0,11123
347,12002;11,57036;1929,54224;0,11141
347,52002;11,58432;1929,08794;0,11160
347,92002;11,59771;1929,73651;0,11178
348,32002;11,60967;1927,28303;0,11196
348,72002;11,62420;1928,69622;0,11216
349,12002;11,63702;1928,22944;0,11234
349,52002;11,65098;1927,69989;0,11252
349,92002;11,66324;1927,17034;0,11270
350,32002;11,67748;1927,52425;0,11289
350,72002;11,69059;1926,58119;0,11307
351,12002;11,70312;1926,88834;0,11325
351,52002;11,71708;1925,91995;0,11343
351,92002;11,73047;1926,12372;0,11362
352,32002;11,74443;1926,53723;0,11381
352,72002;11,75725;1925,54090;0,11399
353,12002;11,77121;1925,55971;0,11418
353,52002;11,78375;1925,25890;0,11435
353,92002;11,79771;1925,04264;0,11454
354,32002;11,81110;1925,00185;0,11473
354,72002;11,82392;1924,56953;0,11491
355,12002;11,83759;1924,67924;0,11509
355,52002;11,85041;1924,48180;0,11527
355,92002;11,86437;1924,15286;0,11546
356,32002;11,87691;1923,58568;0,11564
356,72002;11,89058;1923,59816;0,11583
357,12002;11,90398;1923,68273;0,11601
357,52002;11,91708;1923,00901;0,11620
357,92002;11,92990;1922,08476;0,11637
358,32002;11,94329;1921,92178;0,11655
358,72002;11,95754;1922,76463;0,11675
359,12002;11,97007;1922,12537;0,11693
359,52002;11,98460;1922,80542;0,11712
359,92002;11,99714;1921,77128;0,11730
360,32002;12,01138;1921,58651;0,11749
360,72002;12,02392;1921,81841;0,11767
361,12002;12,03731;1921,48313;0,11785
361,52002;12,05098;1921,49244;0,11803
361,92002;12,06381;1920,48345;0,11822
362,32002;12,07776;1920,70287;0,11840
362,72002;12,09059;1920,85318;0,11858
363,12002;12,10398;1920,12936;0,11877
363,52002;12,11680;1919,86319;0,11895
363,92002;12,13047;1919,91013;0,11914
364,32002;12,14358;1919,15184;0,11932
364,72002;12,15668;1919,21443;0,11950
365,12002;12,17036;1919,47464;0,11969
365,52002;12,18375;1919,75962;0,11988
365,92002;12,19771;1920,15134;0,12007
366,32002;12,21024;1919,96023;0,12025
366,72002;12,22477;1919,54970;0,12044
367,12002;12,23759;1918,96390;0,12062
367,52002;12,25098;1918,29335;0,12080
367,92002;12,26380;1917,97670;0,12098
368,32002;12,27662;1917,40971;0,12116
368,72002;12,29087;1918,19295;0,12136
369,12002;12,30369;1917,67905;0,12154
369,52002;12,31794;1918,46248;0,12173
369,92002;12,33047;1917,26238;0,12191
370,32002;12,34415;1918,03947;0,12210
370,72002;12,35697;1916,52291;0,12228
371,12002;12,37007;1916,37874;0,12246
371,52002;12,38318;1915,85235;0,12264
371,92002;12,39714;1916,62945;0,12283
372,32002;12,41110;1916,63262;0,12303
372,72002;12,42449;1917,04929;0,12321
373,12002;12,43816;1917,06177;0,12340
373,52002;12,45013;1915,22259;0,12357
373,92002;12,46437;1916,58232;0,12377
374,32002;12,47776;1916,38507;0,12395
374,72002;12,49030;1916,08109;0,12413
375,12002;12,50398;1914,92178;0,12431
375,52002;12,51708;1916,17198;0,12450
375,92002;12,53104;1915,91177;0,12469
376,32002;12,54386;1915,26953;0,12487
376,72002;12,55754;1915,45133;0,12506
377,12002;12,57093;1915,56402;0,12525
377,52002;12,58346;1914,26687;0,12543
377,92002;12,59628;1913,74663;0,12560
378,32002;12,60996;1914,37341;0,12579
378,72002;12,62420;1914,65840;0,12599
379,12002;12,63759;1914,64275;0,12617
379,52002;12,65155;1914,63977;0,12636
379,92002;12,66380;1914,27935;0,12654
380,32002;12,67748;1913,23906;0,12672
380,72002;12,69030;1913,34244;0,12690
381,12002;12,70369;1913,18896;0,12708
381,52002;12,71736;1914,02864;0,12727
381,92002;12,73047;1913,13252;0,12746
382,32002;12,74471;1913,33611;0,12765
382,72002;12,75725;1912,56851;0,12783
383,12002;12,77064;1912,33661;0,12801
383,52002;12,78375;1912,01698;0,12819
383,92002;12,79742;1911,68170;0,12838
384,32002;12,80967;1910,75746;0,12855
384,72002;12,82335;1911,03313;0,12874
385,12002;12,83702;1911,58466;0,12893
385,52002;12,85098;1911,99202;0,12912
385,92002;12,86466;1911,74131;0,12930
386,32002;12,87691;1910,14316;0,12948
386,72002;12,89115;1911,01748;0,12967
387,12002;12,90369;1910,09622;0,12984
387,52002;12,91736;1910,38456;0,13003
387,92002;12,93047;1909,77976;0,13021
388,32002;12,94329;1909,46646;0,13039
388,72002;12,95754;1910,70419;0,13058
389,12002;12,97036;1909,45379;0,13077
389,52002;12,98460;1909,36923;0,13095
389,92002;12,99685;1908,94622;0,13113
390,32002;13,01081;1909,28150;0,13132
390,72002;13,02335;1908,32578;0,13149
391,12002;13,03645;1908,26319;0,13168
391,52002;13,04984;1908,80205;0,13186
391,92002;13,06380;1908,07208;0,13206
392,32002;13,07805;1909,16564;0,13225
392,72002;13,09087;1909,14050;0,13242
393,12002;13,10454;1908,55768;0,13261
393,52002;13,11708;1907,81504;0,13279
393,92002;13,13047;1908,18161;0,13297
394,32002;13,14443;1908,27884;0,13316
394,72002;13,15725;1908,29132;0,13335
395,12002;13,17093;1907,99367;0,13353
395,52002;13,18346;1907,20409;0,13371
395,92002;13,19771;1907,14449;0,13390
396,32002;13,21024;1906,70267;0,13408
396,72002;13,22392;1907,43599;0,13427
397,12002;13,23702;1907,20093;0,13445
397,52002;13,25013;1906,22024;0,13464
397,92002;13,26323;1906,15430;0,13482
398,32002;13,27691;1906,57433;0,13501
398,72002;13,29115;1907,71800;0,13520
399,12002;13,30397;1906,03845;0,13538
399,52002;13,31793;1907,13201;0,13558
399,92002;13,33018;1905,99449;0,13575
400,32002;13,34414;1906,74346;0,13594
400,72002;13,35697;1906,67771;0,13612
401,12002;13,37064;1905,35225;0,13631
401,52002;13,38432;1906,28916;0,13649
401,92002;13,39742;1905,86932;0,13668
402,32002;13,41110;1906,11668;0,13686
402,72002;13,42363;1906,19826;0,13704
403,12002;13,43731;1905,39602;0,13723
403,52002;13,45013;1905,00133;0,13741
403,92002;13,46380;1905,60911;0,13760
404,32002;13,47691;1904,02362;0,13778
404,72002;13,49001;1904,49674;0,13797
405,12002;13,50369;1905,18927;0,13816
405,52002;13,51736;1905,08906;0,13834
405,92002;13,53104;1904,83201;0,13853
406,32002;13,54329;1903,74795;0,13870
406,72002;13,55782;1904,49059;0,13890
407,12002;13,57064;1904,66288;0,13908
407,52002;13,58460;1904,94489;0,13927
407,92002;13,59742;1905,06391;0,13945
408,32002;13,61024;1903,52853;0,13964
408,72002;13,62420;1904,16779;0,13983
409,12002;13,63674;1903,56616;0,14000
409,52002;13,65098;1903,68835;0,14019
409,92002;13,66380;1903,01463;0,14037
410,32002;13,67748;1904,08323;0,14056
410,72002;13,69058;1903,65389;0,14074
411,12002;13,70369;1902,79223;0,14093
411,52002;13,71679;1902,98967;0,14111
411,92002;13,73047;1902,87363;0,14129
412,32002;13,74443;1902,93007;0,14149
412,72002;13,75725;1902,62292;0,14166
413,12002;13,77092;1902,09970;0,14185
413,52002;13,78375;1902,37854;0,14203
413,92002;13,79771;1902,62925;0,14222
414,32002;13,81081;1902,28149;0,14240
414,72002;13,82392;1902,22505;0,14259
415,12002;13,83731;1902,01513;0,14277
415,52002;13,85013;1902,13732;0,14295
415,92002;13,86380;1901,41033;0,14314
416,32002;13,87691;1900,97168;0,14332
416,72002;13,89087;1901,26617;0,14351
417,12002;13,90397;1900,97485;0,14369
417,52002;13,91736;1900,77107;0,14387
417,92002;13,93018;1900,43282;0,14405
418,32002;13,94329;1899,61810;0,14423
418,72002;13,95725;1901,27250;0,14442
419,12002;13,97064;1900,42015;0,14461
419,52002;13,98488;1900,91524;0,14480
419,92002;13,99685;1900,05992;0,14497
420,32002;14,01081;1900,29480;0,14516
420,72002;14,02420;1900,59561;0,14534
421,12002;14,03702;1899,43947;0,14553
421,52002;14,05070;1900,48907;0,14571
421,92002;14,06380;1899,76841;0,14589
422,32002;14,07805;1899,33293;0,14608
422,72002;14,09058;1899,54918;0,14626
423,12002;14,10397;1899,48957;0,14645
423,52002;14,11736;1899,08538;0,14664
423,92002;14,13047;1899,79356;0,14682
424,32002;14,14300;1898,56831;0,14699
424,72002;14,15668;1898,52454;0,14719
425,12002;14,17035;1898,23620;0,14737
425,52002;14,18403;1898,57464;0,14756
425,92002;14,19827;1899,19192;0,14775
426,32002;14,21024;1898,71881;0,14793
426,72002;14,22477;1898,94754;0,14812
427,12002;14,23731;1898,71881;0,14830
427,52002;14,25098;1898,17976;0,14848
427,92002;14,26380;1898,05124;0,14866
428,32002;14,27662;1897,31494;0,14884
428,72002;14,29087;1898,09520;0,14903
429,12002;14,30369;1897,88528;0,14922
429,52002;14,31765;1898,67802;0,14941
429,92002;14,33047;1897,80388;0,14959
430,32002;14,34443;1898,03261;0,14978
430,72002;14,35668;1897,31494;0,14995
431,12002;14,36979;1897,53436;0,15014
431,52002;14,38346;1897,59694;0,15033
431,92002;14,39714;1897,25850;0,15051
432,32002;14,41110;1898,18610;0,15071
432,72002;14,42449;1897,72863;0,15089
433,12002;14,43788;1897,29929;0,15108
433,52002;14,45013;1896,24652;0,15125
433,92002;14,46409;1897,36504;0,15144
434,32002;14,47748;1897,55633;0,15162
434,72002;14,49030;1896,75409;0,15181
435,12002;14,50397;1897,03610;0,15199
435,52002;14,51708;1896,58497;0,15218
435,92002;14,53104;1897,31177;0,15237
436,32002;14,54386;1896,90758;0,15255
436,72002;14,55753;1897,04541;0,15274
437,12002;14,57064;1897,39019;0,15292
437,52002;14,58374;1897,33692;0,15311
437,92002;14,59656;1896,28713;0,15328
438,32002;14,61024;1896,45328;0,15348
438,72002;14,62420;1897,28998;0,15367
439,12002;14,63759;1897,33692;0,15385
439,52002;14,65155;1897,45277;0,15404
439,92002;14,66352;1895,99264;0,15421
440,32002;14,67748;1897,38385;0,15441
440,72002;14,69058;1896,27782;0,15458
441,12002;14,70369;1895,66985;0,15477
441,52002;14,71736;1896,12117;0,15496
441,92002;14,73047;1896,04592;0,15514
442,32002;14,74471;1896,78855;0,15533
442,72002;14,75696;1895,77341;0,15550
443,12002;14,77036;1895,41932;0,15569
443,52002;14,78346;1895,15296;0,15587
443,92002;14,79714;1895,59478;0,15606
444,32002;14,80967;1894,13149;0,15624
444,72002;14,82335;1895,36903;0,15643
445,12002;14,83731;1896,04908;0,15661
445,52002;14,85070;1895,13415;0,15680
445,92002;14,86466;1895,16861;0,15699
446,32002;14,87691;1895,05257;0,15716
446,72002;14,89115;1894,66104;0,15735
447,12002;14,90369;1894,47924;0,15753
447,52002;14,91765;1895,40982;0,15772
447,92002;14,93075;1894,64223;0,15790
448,32002;14,94357;1894,15328;0,15808
448,72002;14,95782;1894,83017;0,15827
449,12002;14,97035;1894,11566;0,15845
449,52002;14,98431;1894,73927;0,15864
449,92002;14,99685;1894,45410;0,15881
450,32002;15,01081;1894,39785;0,15901
450,72002;15,02335;1894,09070;0,15918
451,12002;15,03674;1893,78988;0,15937
451,52002;15,05041;1894,29428;0,15956
451,92002;15,06380;1895,07771;0,15975
452,32002;15,07776;1894,71431;0,15993
452,72002;15,09087;1894,08436;0,16012
453,12002;15,10426;1894,25983;0,16030
453,52002;15,11679;1893,81186;0,16048
453,92002;15,13104;1894,48558;0,16067
454,32002;15,14443;1894,17209;0,16086
454,72002;15,15725;1894,68600;0,16104
455,12002;15,17092;1894,21605;0,16122
455,52002;15,18374;1894,27547;0,16141
455,92002;15,19770;1894,20655;0,16160
456,32002;15,21024;1893,53302;0,16178
456,72002;15,22392;1894,54816;0,16197
457,12002;15,23731;1894,94304;0,16215
457,52002;15,25041;1894,69848;0,16234
457,92002;15,26323;1893,95901;0,16251
458,32002;15,27691;1894,39785;0,16271
458,72002;15,29058;1894,30378;0,16289
459,12002;15,30340;1893,78988;0,16307
459,52002;15,31793;1895,30961;0,16327
459,92002;15,33047;1893,36371;0,16345
460,32002;15,34414;1894,32874;0,16364
460,72002;15,35725;1894,62025;0,16382
461,12002;15,37064;1894,23803;0,16401
461,52002;15,38403;1894,33191;0,16420
461,92002;15,39742;1894,08120;0,16438
462,32002;15,41109;1893,78355;0,16457
462,72002;15,42363;1894,06257;0,16475
463,12002;15,43731;1894,89275;0,16494
463,52002;15,45013;1893,66769;0,16512
463,92002;15,46380;1894,91156;0,16531
464,32002;15,47634;1893,25716;0,16549
464,72002;15,49001;1894,34756;0,16568
465,12002;15,50369;1893,83067;0,16587
465,52002;15,51736;1894,47291;0,16606
465,92002;15,53104;1894,45410;0,16625
466,32002;15,54357;1893,25716;0,16643
466,72002;15,55810;1894,55748;0,16663
467,12002;15,57064;1894,82383;0,16681
467,52002;15,58460;1894,67669;0,16700
467,92002;15,59742;1894,10951;0,16718
468,32002;15,60995;1892,97833;0,16736
468,72002;15,62392;1893,69582;0,16756
469,12002;15,63702;1894,05624;0,16774
469,52002;15,65155;1893,83682;0,16794
469,92002;15,66380;1893,89959;0,16812
470,32002;15,67747;1894,38518;0,16831
470,72002;15,69058;1893,50471;0,16850
471,12002;15,70312;1893,52669;0,16868
471,52002;15,71651;1892,52403;0,16887
471,92002;15,73018;1893,18508;0,16906
472,32002;15,74443;1893,78038;0,16926
472,72002;15,75753;1893,17260;0,16944
473,12002;15,77121;1892,86247;0,16964
473,52002;15,78374;1892,38302;0,16982
473,92002;15,79770;1893,13181;0,17001
474,32002;15,81081;1892,75593;0,17020
474,72002;15,82391;1892,36421;0,17039
475,12002;15,83730;1892,07587;0,17059
475,35802;15,84556;1326,02574;0,18108
475,36202;15,84556;1100,80140;0,18548