File: 02_Appendices/Appendix_C_Experimental_Data_and_Analysis Reports/C_1_Materials_Tests/C_1_1_Tensile_tests/C_1_1_4_Impact Smooth 3D/Specimen_RawData_2.csv
Text Inputs : Specimen label;"1"
Dimension : Length;50,00000;mm
Dimension : Final length;100,00000;mm
Test : Rate 1;4,00000;mm/min
General : Unique Identifier;"{51D68FB4-6FF7-4A8A-9B63-97C6936456A4}"

Time;Extension;Load;Strain 1
(sec);(mm);(N);(mm/mm)
0,00000;0,00000;0,39235;0,00001
0,30000;0,00843;0,93443;0,00001
0,60000;0,01940;3,86733;0,00008
0,90000;0,02980;7,26709;0,00016
1,20000;0,04000;11,02407;0,00025
1,50000;0,04991;14,64630;0,00033
1,80000;0,06000;18,09935;0,00041
2,10000;0,07003;21,01030;0,00049
2,40000;0,08000;23,45124;0,00057
2,70000;0,09003;26,39978;0,00065
3,00000;0,10000;29,28880;0,00072
3,30000;0,11003;33,14292;0,00080
3,60000;0,12000;34,61876;0,00088
3,90000;0,13006;37,98406;0,00097
4,20000;0,13994;40,45947;0,00104
4,50000;0,15000;42,73120;0,00112
4,80000;0,15997;46,48505;0,00120
5,10000;0,17003;48,00475;0,00128
5,40000;0,18000;51,51106;0,00136
5,70000;0,19000;53,17804;0,00145
6,00000;0,20869;59,58903;0,00159
6,30000;0,22946;65,93108;0,00176
6,60000;0,24983;72,09140;0,00193
6,90000;0,26997;76,85734;0,00209
7,20000;0,28991;82,09957;0,00225
7,50000;0,30997;87,62066;0,00241
7,80000;0,32994;92,93495;0,00257
8,10000;0,34994;97,31548;0,00273
8,40000;0,36994;101,31999;0,00288
8,70000;0,38991;106,65621;0,00304
9,00000;0,40994;108,56134;0,00315
9,30000;0,42991;108,92482;0,00320
9,60000;0,44991;109,16922;0,00323
9,90000;0,46994;109,11282;0,00327
10,20000;0,48991;108,70234;0,00330
10,50000;0,50994;109,30710;0,00333
10,80000;0,52994;108,60207;0,00335
11,10000;0,55000;108,47047;0,00337
11,40000;0,56994;107,83125;0,00339
11,70000;0,58989;108,74307;0,00342
12,00000;0,60991;107,56177;0,00344
12,30000;0,62986;108,88722;0,00346
12,60000;0,64994;108,94676;0,00348
12,90000;0,66994;108,74307;0,00351
13,20000;0,68997;109,84291;0,00354
13,50000;0,70997;110,31292;0,00356
13,80000;0,72994;110,28158;0,00359
14,10000;0,74997;111,88904;0,00365
14,40000;0,76994;113,70329;0,00371
14,70000;0,78991;116,85551;0,00378
15,00000;0,80991;119,62546;0,00386
15,30000;0,82994;123,21637;0,00397
15,60000;0,84994;125,95812;0,00407
15,90000;0,86991;130,67079;0,00420
16,20000;0,88994;134,84452;0,00434
16,50000;0,90994;140,64761;0,00448
16,80000;0,92997;143,41443;0,00461
17,10000;0,94994;148,68486;0,00476
17,40000;0,96994;152,30082;0,00490
17,70000;0,98991;156,27715;0,00502
18,00000;1,00988;161,63531;0,00517
18,30000;1,02994;165,40794;0,00532
18,60000;1,04994;170,72223;0,00549
18,90000;1,06997;175,16856;0,00565
19,20000;1,08994;179,78097;0,00581
19,50000;1,10994;185,04825;0,00596
19,80000;1,12997;189,03398;0,00613
20,10000;1,14994;193,50850;0,00629
20,40000;1,16994;197,69163;0,00645
20,70000;1,18991;202,73330;0,00661
21,00000;1,20991;206,14560;0,00677
21,30000;1,22991;212,03959;0,00693
21,60000;1,24994;216,21017;0,00710
21,90000;1,26994;219,85748;0,00726
22,20000;1,28991;225,05582;0,00742
22,50000;1,30997;229,84997;0,00758
22,80000;1,32997;233,14320;0,00774
23,10000;1,34994;238,04700;0,00791
23,40000;1,36991;241,76952;0,00807
23,70000;1,38988;245,82418;0,00823
24,00000;1,40997;249,56234;0,00839
24,30000;1,42991;254,56643;0,00855
24,60000;1,44994;258,58663;0,00872
24,90000;1,46994;262,47834;0,00888
25,20000;1,48991;266,63013;0,00904
25,50000;1,50997;271,04511;0,00921
25,80000;1,52994;274,90864;0,00937
26,10000;1,55000;278,46508;0,00954
26,40000;1,56994;281,92750;0,00970
26,70000;1,58988;286,51170;0,00986
27,00000;1,60994;290,50370;0,01003
27,30000;1,62991;294,83722;0,01019
27,60000;1,64994;298,52213;0,01035
27,90000;1,66994;301,19182;0,01052
28,20000;1,68997;305,91073;0,01068
28,50000;1,70997;309,26978;0,01084
28,80000;1,72994;313,06436;0,01101
29,10000;1,74994;317,01874;0,01117
29,40000;1,76991;320,08009;0,01133
29,70000;1,78991;324,08461;0,01150
30,00000;1,80991;328,14241;0,01166
30,30000;1,82991;331,31656;0,01182
30,60000;1,84991;335,05473;0,01199
30,90000;1,86991;338,67385;0,01215
31,20000;1,88997;342,11434;0,01232
31,50000;1,90997;346,08440;0,01248
31,80000;1,92997;348,85434;0,01265
32,10000;1,94991;353,13147;0,01281
32,40000;1,96994;356,09256;0,01298
32,70000;1,98991;358,94711;0,01314
33,00000;2,00991;362,96728;0,01330
33,30000;2,02991;366,90286;0,01347
33,60000;2,04991;370,10210;0,01363
33,90000;2,06997;373,40787;0,01380
34,20000;2,08994;377,07083;0,01397
34,50000;2,10997;379,55879;0,01413
34,80000;2,12997;383,33456;0,01430
35,10000;2,14991;386,44918;0,01446
35,40000;2,16997;390,29703;0,01463
35,70000;2,18991;393,13277;0,01479
36,00000;2,20991;396,29438;0,01496
36,30000;2,22988;400,13283;0,01513
36,60000;2,24991;402,60823;0,01529
36,90000;2,27000;406,32137;0,01546
37,20000;2,28991;409,55506;0,01563
37,50000;2,30997;412,16831;0,01580
37,80000;2,32994;415,18584;0,01596
38,10000;2,34991;418,74852;0,01613
38,40000;2,36994;422,08247;0,01630
38,70000;2,38991;424,09101;0,01647
39,00000;2,40994;427,85425;0,01664
39,30000;2,42991;430,45501;0,01681
39,60000;2,44994;433,16539;0,01697
39,90000;2,46994;436,24244;0,01714
40,20000;2,48994;440,13103;0,01731
40,50000;2,50994;442,38395;0,01748
40,80000;2,52994;444,86248;0,01765
41,10000;2,55000;447,07470;0,01782
41,40000;2,56994;450,07337;0,01799
41,70000;2,58988;453,36662;0,01816
42,00000;2,60991;456,02689;0,01832
42,30000;2,62988;459,08825;0,01849
42,60000;2,64994;461,02782;0,01866
42,90000;2,66994;464,33671;0,01883
43,20000;2,68997;467,33543;0,01901
43,50000;2,70997;469,36590;0,01918
43,80000;2,72994;472,22045;0,01935
44,10000;2,74997;475,02797;0,01952
44,40000;2,76994;478,05798;0,01969
44,70000;2,78991;480,06028;0,01987
45,00000;2,80988;482,94617;0,02004
45,30000;2,82991;485,83518;0,02021
45,60000;2,84994;488,09121;0,02038
45,90000;2,86994;491,11811;0,02055
46,20000;2,88994;492,42163;0,02072
46,50000;2,90994;495,78692;0,02089
46,80000;2,92997;497,26279;0,02107
47,10000;2,94994;500,48707;0,02124
47,40000;2,96997;502,58646;0,02141
47,70000;2,98991;504,47905;0,02158
48,00000;3,00985;507,21765;0,02176
48,30000;3,02994;509,25752;0,02193
48,60000;3,04994;512,12148;0,02210
48,90000;3,06991;513,50016;0,02228
49,20000;3,08991;515,51810;0,02245
49,50000;3,10994;517,63942;0,02262
49,80000;3,12997;520,21509;0,02280
50,10000;3,14994;522,68114;0,02297
50,40000;3,16994;524,78053;0,02314
50,70000;3,18991;526,51018;0,02332
51,00000;3,20994;528,50302;0,02349
51,30000;3,22991;530,70583;0,02367
51,60000;3,24994;532,73942;0,02384
51,90000;3,26997;534,88580;0,02402
52,20000;3,28991;536,25200;0,02419
52,50000;3,30997;538,23232;0,02437
52,80000;3,32997;540,72337;0,02454
53,10000;3,34994;542,65358;0,02472
53,40000;3,36991;544,42710;0,02489
53,70000;3,38988;546,50144;0,02506
54,00000;3,40997;547,55737;0,02524
54,30000;3,42991;549,40609;0,02542
54,60000;3,44994;552,32961;0,02560
54,90000;3,46994;554,00599;0,02578
55,20000;3,48991;555,49433;0,02595
55,50000;3,50997;557,87577;0,02613
55,80000;3,52994;558,93487;0,02631
56,10000;3,55000;560,93084;0,02649
56,40000;3,56994;562,27506;0,02667
56,70000;3,58991;564,02981;0,02685
57,00000;3,60994;565,75947;0,02703
57,30000;3,62991;567,65829;0,02721
57,60000;3,64994;569,95512;0,02739
57,90000;3,66994;572,71253;0,02757
58,20000;3,68997;572,76264;0,02775
58,50000;3,70997;574,68656;0,02794
58,80000;3,72994;575,68615;0,02812
59,10000;3,74994;578,13022;0,02830
59,40000;3,76991;580,11054;0,02848
59,70000;3,78991;580,79991;0,02867
60,00000;3,80988;583,14684;0,02885
60,30000;3,82991;585,00809;0,02904
60,60000;3,84994;586,41499;0,02922
60,90000;3,86991;587,37695;0,02941
61,20000;3,88997;588,90921;0,02959
61,50000;3,90997;590,40696;0,02978
61,80000;3,92997;591,98309;0,02996
62,10000;3,94994;593,91330;0,03015
62,40000;3,96997;594,95359;0,03034
62,70000;3,98991;596,23513;0,03052
63,00000;4,00991;597,23160;0,03071
63,30000;4,02991;599,13355;0,03090
63,60000;4,04991;601,93799;0,03109
63,90000;4,06994;602,26698;0,03128
64,20000;4,08994;603,15062;0,03147
64,50000;4,10997;604,79566;0,03166
64,80000;4,12997;606,30599;0,03185
65,10000;4,14991;607,33687;0,03204
65,40000;4,16997;609,04459;0,03223
65,70000;4,18991;609,72767;0,03242
66,00000;4,20994;610,44525;0,03261
66,30000;4,22991;612,25635;0,03280
66,60000;4,24991;614,11136;0,03300
66,90000;4,26999;614,95425;0,03319
67,20000;4,28994;616,58048;0,03338
67,50000;4,30994;616,90323;0,03357
67,80000;4,32994;618,31013;0,03377
68,10000;4,34994;620,37818;0,03397
68,40000;4,36994;621,07695;0,03416
68,70000;4,38991;622,47133;0,03435
69,00000;4,40994;623,18575;0,03455
69,30000;4,42988;624,46729;0,03474
69,60000;4,44994;625,75517;0,03494
69,90000;4,46997;626,62000;0,03514
70,20000;4,48994;628,21801;0,03533
70,50000;4,50997;628,64101;0,03553
70,80000;4,52994;629,73145;0,03573
71,10000;4,54997;630,35502;0,03593
71,40000;4,56994;632,59858;0,03613
71,70000;4,58991;633,28790;0,03633
72,00000;4,60991;634,20599;0,03652
72,30000;4,62988;635,67869;0,03673
72,60000;4,64997;636,89137;0,03693
72,90000;4,66994;637,67470;0,03713
73,20000;4,68997;638,42046;0,03733
73,50000;4,70997;639,44194;0,03753
73,80000;4,72994;640,16576;0,03773
74,10000;4,74999;641,51315;0,03794
74,40000;4,76994;642,56913;0,03814
74,70000;4,78991;643,82562;0,03834
75,00000;4,80991;644,59643;0,03854
75,30000;4,82994;645,99393;0,03875
75,60000;4,84994;646,86504;0,03895
75,90000;4,86991;646,64572;0,03916
76,20000;4,88994;647,79567;0,03936
76,50000;4,90994;648,94878;0,03956
76,80000;4,92997;650,37762;0,03977
77,10000;4,94994;650,75988;0,03998
77,40000;4,96997;652,04459;0,04019
77,70000;4,98991;653,31049;0,04039
78,00000;5,00988;653,29797;0,04060
78,30000;5,02994;655,29081;0,04081
78,60000;5,04991;655,45691;0,04101
78,90000;5,06997;656,33738;0,04122
79,20000;5,08994;656,83248;0,04143
79,50000;5,10997;657,10819;0,04164
79,80000;5,12999;657,97931;0,04185
80,10000;5,14994;659,08227;0,04206
80,40000;5,16994;659,25461;0,04227
80,70000;5,18991;660,45783;0,04248
81,00000;5,20994;661,52634;0,04269
81,30000;5,22991;661,90236;0,04291
81,60000;5,24994;662,28150;0,04311
81,90000;5,26997;663,51607;0,04333
82,20000;5,28991;664,02680;0,04354
82,50000;5,30997;665,09531;0,04375
82,80000;5,32997;665,30523;0,04397
83,10000;5,34994;666,47087;0,04418
83,40000;5,36991;666,76545;0,04439
83,70000;5,38985;667,93105;0,04460
84,00000;5,40994;668,98703;0,04482
84,30000;5,42991;668,36346;0,04504
84,60000;5,44997;669,61059;0,04525
84,90000;5,46997;669,57609;0,04546
85,20000;5,48991;670,57880;0,04568
85,50000;5,50997;670,74173;0,04589
85,80000;5,52997;671,81024;0,04611
86,10000;5,54999;672,67194;0,04633
86,40000;5,56994;673,46157;0,04655
86,70000;5,58988;673,41141;0,04676
87,00000;5,60994;673,60881;0,04698
87,30000;5,62988;675,32281;0,04719
87,60000;5,64994;674,94679;0,04741
87,90000;5,66994;675,29776;0,04763
88,20000;5,68997;676,99291;0,04785
88,50000;5,70997;677,10574;0,04807
88,80000;5,72994;677,27808;0,04829
89,10000;5,74994;677,65093;0,04851
89,40000;5,76991;678,57215;0,04873
89,70000;5,78991;678,40610;0,04895
90,00000;5,80994;680,29556;0,04917
90,30000;5,82994;680,90656;0,04939
90,60000;5,84994;680,60262;0,04961
90,90000;5,86991;680,97236;0,04983
91,20000;5,88994;681,38284;0,05005
91,50000;5,90996;682,10983;0,05027
91,80000;5,92996;682,38555;0,05050
92,09600;5,94968;682,29469;0,05072
92,30600;5,96347;683,83319;0,05087
92,60600;5,98350;683,87082;0,05110
92,90600;6,00355;683,93033;0,05132
93,20600;6,02355;684,11520;0,05154
93,50600;6,04355;685,37798;0,05177
93,80600;6,06353;686,36187;0,05199
94,10600;6,08353;685,11791;0,05222
94,40600;6,10355;686,45901;0,05244
94,70600;6,12353;686,57808;0,05267
95,00600;6,14350;687,80640;0,05289
95,30600;6,16350;688,10405;0,05312
95,60600;6,18350;687,90978;0,05335
95,90600;6,20355;688,79966;0,05358
96,20600;6,22355;689,16627;0,05380
96,50600;6,24355;689,81177;0,05403
96,80600;6,26358;690,46039;0,05426
97,10600;6,28350;690,05620;0,05448
97,40600;6,30353;690,62021;0,05471
97,70600;6,32350;691,53830;0,05494
98,00600;6,34350;691,28135;0,05517
98,30600;6,36355;692,00206;0,05540
98,60600;6,38350;691,39414;0,05563
98,90600;6,40358;691,87358;0,05585
99,20600;6,42353;692,50027;0,05608
99,50600;6,44353;692,00206;0,05631
99,80600;6,46355;693,07052;0,05654
100,10600;6,48350;693,85078;0,05677
100,40600;6,50355;693,66586;0,05701
100,70600;6,52350;694,48999;0,05724
101,00600;6,54355;694,71560;0,05747
101,30600;6,56353;695,24199;0,05770
101,60600;6,58347;694,92240;0,05793
101,90600;6,60355;695,78094;0,05816
102,20600;6,62353;696,17261;0,05840
102,50600;6,64355;696,41704;0,05863
102,80600;6,66355;696,01908;0,05886
103,10600;6,68352;696,97164;0,05909
103,40600;6,70355;697,08759;0,05933
103,70600;6,72347;697,93672;0,05956
104,00600;6,74355;697,77379;0,05979
104,30600;6,76353;697,80513;0,06003
104,60600;6,78350;698,14357;0,06026
104,90600;6,80355;698,32527;0,06049
105,20600;6,82353;698,87675;0,06073
105,50601;6,84358;698,43810;0,06096
105,80601;6,86352;699,50344;0,06120
106,10601;6,88352;699,91392;0,06143
106,40601;6,90352;700,47481;0,06166
106,70601;6,92350;700,05180;0,06190
107,00601;6,94352;700,77563;0,06213
107,30601;6,96352;700,35574;0,06237
107,60601;6,98353;701,37726;0,06260
107,90601;7,00352;701,82220;0,06284
108,20601;7,02355;701,19551;0,06308
108,50601;7,04358;701,73759;0,06331
108,80601;7,06352;702,23892;0,06355
109,10601;7,08350;702,64940;0,06379
109,40601;7,10352;701,88171;0,06402
109,70601;7,12355;702,65881;0,06426
110,00601;7,14352;702,90635;0,06450
110,30601;7,16350;703,07241;0,06474
110,60601;7,18350;702,53350;0,06497
110,90601;7,20355;703,63018;0,06521
111,20601;7,22355;703,57379;0,06545
111,50601;7,24355;703,83698;0,06569
111,80601;7,26361;704,59843;0,06593
112,10601;7,28350;704,70492;0,06617
112,40601;7,30355;704,56392;0,06641
112,70601;7,32352;705,03084;0,06665
113,00601;7,34352;705,52905;0,06688
113,30601;7,36350;705,42251;0,06712
113,60601;7,38344;705,68258;0,06736
113,90601;7,40358;705,44132;0,06760
114,20601;7,42355;706,76049;0,06784
114,50601;7,44355;706,48785;0,06808
114,80601;7,46352;706,77614;0,06832
115,10601;7,48350;706,97670;0,06856
115,40601;7,50355;707,15840;0,06881
115,70601;7,52352;706,89833;0,06905
116,00601;7,54355;707,29628;0,06929
116,30601;7,56350;707,66918;0,06953
116,60601;7,58344;708,33033;0,06977
116,90601;7,60358;708,11724;0,07001
117,20601;7,62355;708,27394;0,07025
117,50601;7,64358;707,65349;0,07049
117,80601;7,66352;708,08590;0,07074
118,10601;7,68352;708,95385;0,07098
118,40601;7,70358;709,64010;0,07122
118,70601;7,72350;709,77169;0,07146
119,00601;7,74352;709,02593;0,07171
119,30601;7,76352;709,85318;0,07195
119,60601;7,78350;709,03222;0,07219
119,90601;7,80355;709,09802;0,07243
120,20601;7,82355;710,31689;0,07268
120,50601;7,84358;710,41719;0,07292
120,80601;7,86352;710,26678;0,07316
121,10601;7,88352;710,23544;0,07340
121,40601;7,90355;710,13831;0,07365
121,70601;7,92349;711,31019;0,07389
122,00601;7,94350;710,78064;0,07414
122,30601;7,96349;710,40466;0,07438
122,60601;7,98352;711,47629;0,07462
122,90601;8,00355;710,46730;0,07487
123,20601;8,02355;711,37915;0,07511
123,50601;8,04355;711,49822;0,07536
123,80601;8,06352;711,27261;0,07560
124,10601;8,08352;711,74889;0,07585
124,40601;8,10355;711,56714;0,07609
124,70601;8,12355;712,08416;0,07633
125,00601;8,14352;711,68309;0,07658
125,30601;8,16350;712,18442;0,07682
125,60601;8,18349;711,78335;0,07706
125,90601;8,20355;712,22205;0,07731
126,20601;8,22355;712,27532;0,07756
126,50601;8,24355;712,52598;0,07780
126,80601;8,26358;713,02732;0,07805
127,10601;8,28349;712,47271;0,07829
127,40601;8,30352;713,24981;0,07854
127,70601;8,32352;713,40962;0,07878
128,00601;8,34349;713,70099;0,07903
128,30601;8,36355;713,46913;0,07928
128,60601;8,38347;713,69787;0,07952
128,90601;8,40358;713,29679;0,07977
129,20601;8,42355;713,65712;0,08002
129,50601;8,44355;714,26504;0,08026
129,80601;8,46355;714,09894;0,08051
130,10601;8,48349;714,12087;0,08075
130,40601;8,50355;714,87916;0,08100
130,70601;8,52347;715,39618;0,08124
131,00601;8,54355;715,00451;0,08150
131,30601;8,56352;715,23637;0,08174
131,60601;8,58347;714,71310;0,08199
131,90601;8,60358;714,81024;0,08223
132,20601;8,62352;715,15180;0,08248
132,50601;8,64355;715,74398;0,08273
132,80601;8,66355;715,40247;0,08298
133,10601;8,68352;715,62491;0,08323
133,40601;8,70355;716,16075;0,08347
133,70601;8,72347;716,22967;0,08372
134,00601;8,74352;715,85681;0,08397
134,30601;8,76352;716,51167;0,08422
134,60601;8,78349;716,32056;0,08447
134,90601;8,80355;716,42082;0,08471
135,20601;8,82352;716,80625;0,08496
135,50601;8,84358;717,33263;0,08521
135,80601;8,86352;717,51438;0,08546
136,10601;8,88352;717,63033;0,08571
136,40601;8,90352;716,88145;0,08595
136,70601;8,92352;717,33892;0,08620
137,00601;8,94352;717,29505;0,08645
137,30601;8,96352;717,14153;0,08670
137,60601;8,98349;717,66791;0,08695
137,90601;9,00355;717,28253;0,08720
138,20601;9,02355;717,68360;0,08745
138,50601;9,04358;718,27583;0,08770
138,80601;9,06355;718,03769;0,08795
139,10601;9,08349;718,39490;0,08820
139,40601;9,10352;719,62005;0,08845
139,70601;9,12355;718,70196;0,08870
140,00601;9,14352;718,71760;0,08895
140,30601;9,16352;719,58243;0,08920
140,60601;9,18347;718,15359;0,08945
140,90601;9,20355;718,73018;0,08970
141,20601;9,22355;718,86801;0,08995
141,50601;9,24358;719,46965;0,09020
141,80601;9,26361;718,78657;0,09045
142,10601;9,28349;719,67021;0,09070
142,40601;9,30352;719,43207;0,09094
142,70601;9,32352;720,12139;0,09120
143,00601;9,34352;719,86448;0,09145
143,30601;9,36349;719,72660;0,09170
143,60601;9,38347;719,60124;0,09195
143,90601;9,40358;720,54439;0,09219
144,20601;9,42355;719,62946;0,09245
144,50601;9,44352;719,65763;0,09270
144,80601;9,46352;719,45712;0,09295
145,10601;9,48349;719,53232;0,09319
145,40601;9,50358;721,00814;0,09344
145,70601;9,52352;720,88907;0,09369
146,00601;9,54352;720,47547;0,09395
146,30601;9,56349;720,18718;0,09420
146,60601;9,58344;720,85150;0,09445
146,90601;9,60358;721,01755;0,09470
147,20601;9,62355;720,58202;0,09495
147,50601;9,64358;720,87343;0,09520
147,80601;9,66352;721,10528;0,09545
148,10601;9,68352;721,71316;0,09570
148,40601;9,70358;720,93923;0,09595
148,70601;9,72349;720,71049;0,09620
149,00601;9,74352;721,56903;0,09646
149,30601;9,76349;721,37476;0,09670
149,60601;9,78349;720,92982;0,09695
149,90601;9,80355;721,18989;0,09721
150,20601;9,82355;721,91684;0,09746
150,50601;9,84358;722,10487;0,09771
150,80601;9,86352;721,53769;0,09796
151,10601;9,88352;722,30538;0,09821
151,40601;9,90355;722,34925;0,09846
151,70601;9,92349;722,37747;0,09871
152,00601;9,94349;722,32108;0,09897
152,30601;9,96349;721,72573;0,09922
152,60601;9,98352;721,73197;0,09947
152,90601;10,00355;721,86044;0,09972
153,20601;10,02355;723,04490;0,09997
153,50601;10,04355;722,61873;0,10022
153,80601;10,06352;722,88821;0,10047
154,10601;10,08352;722,62189;0,10073
154,40601;10,10355;722,63442;0,10098
154,70601;10,12355;722,86939;0,10123
155,00601;10,14349;723,48355;0,10148
155,30601;10,16349;723,27675;0,10173
155,60601;10,18349;723,17338;0,10199
155,90601;10,20355;723,35824;0,10224
156,20601;10,22355;723,69976;0,10249
156,50601;10,24355;723,65901;0,10274
156,80601;10,26358;723,75932;0,10299
157,10601;10,28349;725,12547;0,10325
157,40601;10,30352;724,34526;0,10350
157,70601;10,32352;723,95671;0,10375
158,00601;10,34349;724,47374;0,10400
158,30601;10,36352;724,62414;0,10425
158,60601;10,38346;724,11965;0,10450
158,90601;10,40358;723,70293;0,10476
159,20601;10,42355;724,52072;0,10501
159,50601;10,44355;724,77767;0,10526
159,80601;10,46358;725,11607;0,10551
160,10601;10,48352;725,12235;0,10576
160,40601;10,50355;724,16663;0,10601
160,70601;10,52349;725,01893;0,10627
161,00601;10,54355;724,86852;0,10652
161,30601;10,56352;725,14117;0,10677
161,60601;10,58346;724,64291;0,10702
161,90601;10,60355;725,14429;0,10727
162,20601;10,62352;725,29153;0,10752
162,50601;10,64358;725,01269;0,10777
162,80601;10,66355;726,38826;0,10802
163,10601;10,68352;725,43570;0,10828
163,40601;10,70352;725,45134;0,10853
163,70601;10,72346;725,73652;0,10878
164,00601;10,74355;725,83989;0,10903
164,30601;10,76352;725,75216;0,10928
164,60601;10,78349;725,58923;0,10953
164,90601;10,80355;726,06551;0,10979
165,20601;10,82352;725,63938;0,11004
165,50601;10,84358;726,35692;0,11029
165,80601;10,86352;726,43841;0,11054
166,10601;10,88352;726,24413;0,11079
166,40601;10,90355;726,60758;0,11105
166,70601;10,92352;726,78621;0,11130
167,00601;10,94352;726,26607;0,11155
167,30601;10,96349;726,74546;0,11180
167,60601;10,98349;726,97732;0,11205
167,90601;11,00355;726,71412;0,11230
168,20601;11,02355;727,09327;0,11255
168,50601;11,04358;727,23427;0,11281
168,80601;11,06352;727,93616;0,11306
169,10601;11,08349;726,69848;0,11331
169,40601;11,10355;727,15906;0,11356
169,70601;11,12355;727,12149;0,11381
170,00601;11,14352;727,24679;0,11407
170,30601;11,16349;726,74234;0,11432
170,60601;11,18349;727,60717;0,11457
170,90601;11,20355;727,45676;0,11482
171,20601;11,22355;727,53197;0,11508
171,50601;11,24355;728,53779;0,11533
171,80601;11,26358;728,51586;0,11558
172,10601;11,28352;727,77951;0,11583
172,40601;11,30352;727,54761;0,11608
172,70601;11,32352;727,67609;0,11634
173,00601;11,34352;728,51586;0,11659
173,30601;11,36352;728,45006;0,11684
173,60601;11,38346;728,73831;0,11709
173,90601;11,40358;728,53463;0,11735
174,20601;11,42355;728,45630;0,11760
174,50601;11,44355;728,44378;0,11785
174,80601;11,46352;729,62195;0,11810
175,10601;11,48349;729,06418;0,11835
175,40601;11,50358;729,78488;0,11861
175,70601;11,52352;728,69756;0,11886
176,00601;11,54355;729,44020;0,11912
176,30601;11,56349;728,86990;0,11937
176,60601;11,58343;729,27414;0,11962
176,90601;11,60358;729,00779;0,11987
177,20601;11,62355;729,11745;0,12012
177,50601;11,64358;730,18596;0,12037
177,80601;11,66355;730,10135;0,12063
178,10601;11,68352;729,87573;0,12088
178,40601;11,70358;730,36458;0,12113
178,70601;11,72349;730,01990;0,12138
179,00601;11,74352;730,38023;0,12163
179,30601;11,76352;729,65641;0,12188
179,60601;11,78349;729,50600;0,12213
179,90601;11,80358;730,34577;0,12239
180,20601;11,82355;730,55886;0,12264
180,50601;11,84355;730,65911;0,12289
180,80601;11,86352;730,44291;0,12314
181,10601;11,88352;730,35830;0,12340
181,40601;11,90358;731,11034;0,12365
181,70601;11,92352;730,74684;0,12390
182,00601;11,94349;731,19178;0,12415
182,30601;11,96346;730,66535;0,12440
182,60601;11,98352;731,01004;0,12465
182,90601;12,00355;731,03514;0,12490
183,20601;12,02355;730,82517;0,12515
183,50601;12,04355;731,25134;0,12541
183,80601;12,06352;731,31397;0,12565
184,10601;12,08349;730,76566;0,12591
184,40601;12,10355;731,28580;0,12616
184,70601;12,12355;730,86903;0,12641
185,00601;12,14352;731,22312;0,12666
185,30601;12,16349;731,66182;0,12692
185,60601;12,18349;731,90620;0,12717
185,90601;12,20358;731,33591;0,12742
186,20601;12,22355;732,29787;0,12767
186,50601;12,24355;731,70252;0,12792
186,80601;12,26360;731,83416;0,12817
187,10601;12,28352;731,89056;0,12842
187,40601;12,30352;732,42011;0,12867
187,70601;12,32352;732,14434;0,12892
188,00601;12,34349;732,71776;0,12918
188,30601;12,36352;732,11617;0,12943
188,60601;12,38349;732,50472;0,12968
188,90601;12,40358;732,40758;0,12993
189,20601;12,42355;732,50155;0,13018
189,50601;12,44355;733,04363;0,13043
189,80601;12,46355;732,73028;0,13069
190,10601;12,48352;733,47292;0,13094
190,40601;12,50358;732,67706;0,13119
190,70601;12,52349;732,61121;0,13144
191,00601;12,54355;733,30686;0,13169
191,30601;12,56349;732,71152;0,13194
191,60601;12,58346;734,22180;0,13220
191,90601;12,60355;733,30998;0,13245
192,20601;12,62352;734,02128;0,13270
192,50601;12,64358;734,10273;0,13295
192,80601;12,66355;732,89326;0,13320
193,10601;12,68355;733,97742;0,13345
193,40601;12,70355;732,99976;0,13371
193,70601;12,72349;734,41295;0,13396
194,00601;12,74355;733,69853;0,13421
194,30601;12,76352;733,88969;0,13446
194,60601;12,78349;733,71418;0,13471
194,90601;12,80355;733,58575;0,13496
195,20601;12,82355;734,24061;0,13521
195,50601;12,84357;735,11484;0,13546
195,80601;12,86352;734,45993;0,13572
196,10601;12,88352;734,39414;0,13597
196,40601;12,90352;734,80778;0,13622
196,70601;12,92352;734,39414;0,13647
197,00601;12,94352;734,81402;0,13672
197,30601;12,96352;734,85789;0,13697
197,60601;12,98349;734,76075;0,13722
197,90601;13,00355;734,54143;0,13747
198,20601;13,02355;735,19317;0,13773
198,50601;13,04357;734,53831;0,13797
198,80601;13,06355;734,73258;0,13822
199,10601;13,08349;734,59782;0,13847
199,40601;13,10352;735,24956;0,13872
199,70601;13,12355;735,30283;0,13897
200,00601;13,14352;735,13677;0,13923
200,30601;13,16349;735,52844;0,13948
200,60601;13,18349;735,02082;0,13973
200,90601;13,20355;735,62874;0,13998
201,20601;13,22358;735,95145;0,14023
201,50601;13,24357;735,67885;0,14048
201,80601;13,26360;736,14889;0,14073
202,10601;13,28349;736,06428;0,14098
202,40601;13,30352;736,02982;0,14122
202,70601;13,32352;736,38074;0,14148
203,00601;13,34352;736,75048;0,14173
203,30601;13,36349;736,15201;0,14198
203,60601;13,38346;735,48770;0,14223
203,90601;13,40357;736,78493;0,14248
204,20601;13,42357;736,60947;0,14273
204,50601;13,44355;737,09516;0,14298
204,80601;13,46355;736,45595;0,14323
205,10601;13,48349;737,06699;0,14348
205,40601;13,50357;737,12962;0,14373
205,70601;13,52352;736,54996;0,14398
206,00601;13,54355;737,08575;0,14423
206,30601;13,56352;736,81627;0,14448
206,60601;13,58343;737,67798;0,14473
206,90601;13,60357;736,48728;0,14498
207,20601;13,62352;738,85615;0,14523
207,50601;13,64357;737,08263;0,14548
207,80601;13,66355;736,68468;0,14573
208,10601;13,68352;737,16096;0,14598
208,40601;13,70357;737,32706;0,14623
208,70601;13,72349;737,77200;0,14648
209,00601;13,74352;738,00697;0,14673
209,30601;13,76349;737,93805;0,14698
209,60601;13,78349;737,99444;0,14723
209,90601;13,80357;738,22006;0,14748
210,20601;13,82355;737,68427;0,14773
210,50601;13,84357;737,89107;0,14798
210,80601;13,86352;738,13861;0,14823
211,10601;13,88352;738,09158;0,14848
211,40601;13,90355;738,25768;0,14873
211,70601;13,92352;738,53652;0,14898
212,00601;13,94352;738,51775;0,14923
212,30601;13,96349;738,26392;0,14948
212,60601;13,98352;738,63054;0,14973
212,90601;14,00357;739,48912;0,14997
213,20601;14,02355;739,09429;0,15023
213,50601;14,04354;738,56162;0,15048
213,80601;14,06352;738,26709;0,15072
214,10601;14,08352;738,92195;0,15097
214,40601;14,10355;738,40492;0,15122
214,70601;14,12352;738,64935;0,15147
215,00601;14,14349;739,09429;0,15172
215,30601;14,16352;739,66770;0,15197
215,60601;14,18349;739,56428;0,15222
215,90601;14,20357;739,63949;0,15247
216,20601;14,22354;739,80247;0,15272
216,50601;14,24354;739,73662;0,15297
216,80601;14,26357;739,16009;0,15322
217,10601;14,28349;739,56116;0,15346
217,40601;14,30352;739,58309;0,15371
217,70601;14,32352;740,35078;0,15396
218,00601;14,34349;739,93406;0,15421
218,30601;14,36354;739,65206;0,15446
218,60601;14,38349;740,19725;0,15471
218,90601;14,40360;740,30380;0,15496
219,20601;14,42355;739,94971;0,15520
219,50601;14,44354;740,02491;0,15545
219,80601;14,46357;740,92108;0,15570
220,10601;14,48352;740,43539;0,15595
220,40601;14,50355;740,28498;0,15619
220,70601;14,52349;741,22190;0,15644
221,00601;14,54354;741,38171;0,15669
221,30601;14,56352;740,52312;0,15694
221,60601;14,58346;740,27558;0,15719
221,90601;14,60357;741,89869;0,15744
222,20601;14,62354;741,74828;0,15768
222,50601;14,64357;740,63595;0,15793
222,80601;14,66354;741,28141;0,15818
223,10601;14,68352;741,52271;0,15843
223,40601;14,70354;740,96182;0,15868
223,70601;14,72349;741,70129;0,15892
224,00601;14,74354;741,99582;0,15917
224,30601;14,76352;741,95825;0,15942
224,60601;14,78346;741,61668;0,15966
224,90601;14,80354;742,55671;0,15991
225,20601;14,82352;741,36290;0,16016
225,50601;14,84357;742,02092;0,16041
225,80601;14,86352;742,15876;0,16065
226,10601;14,88352;741,92379;0,16090
226,40601;14,90354;742,43764;0,16115
226,70601;14,92352;742,40318;0,16140
227,00601;14,94352;742,73846;0,16165
227,30601;14,96352;742,55988;0,16189
227,60601;14,98352;742,47527;0,16214
227,90601;15,00354;742,32174;0,16239
228,20601;15,02354;742,55671;0,16263
228,50601;15,04357;742,41888;0,16288
228,80601;15,06354;742,76039;0,16313
229,10601;15,08349;742,66638;0,16337
229,40601;15,10352;743,18969;0,16362
229,70601;15,12354;743,21474;0,16387
230,00601;15,14352;743,31816;0,16412
230,30601;15,16349;743,35886;0,16436
230,60601;15,18349;743,85083;0,16461
230,90601;15,20354;743,30564;0,16486
231,20601;15,22357;743,60017;0,16511
231,50601;15,24357;743,71607;0,16535
231,80601;15,26360;743,24296;0,16560
232,10601;15,28349;744,15165;0,16584
232,40601;15,30354;744,37410;0,16609
232,70601;15,32354;744,54644;0,16634
233,00601;15,34352;744,26131;0,16658
233,30601;15,36352;744,84413;0,16683
233,60601;15,38346;745,36116;0,16708
233,90601;15,40357;744,88171;0,16733
234,20601;15,42354;744,25503;0,16757
234,50601;15,44354;744,64045;0,16782
234,80601;15,46357;744,48064;0,16806
235,10601;15,48349;744,95068;0,16831
235,40601;15,50357;744,93499;0,16855
235,70601;15,52352;745,27967;0,16880
236,00601;15,54354;745,57737;0,16905
236,30601;15,56349;745,55855;0,16929
236,60601;15,58346;746,26044;0,16953
236,90601;15,60357;745,38933;0,16978
237,20601;15,62354;746,03795;0,17003
237,50601;15,64357;745,24521;0,17027
237,80601;15,66354;745,80922;0,17051
238,10601;15,68351;746,26044;0,17076
238,40601;15,70357;745,35799;0,17101
238,70601;15,72351;746,38575;0,17125
239,00601;15,74351;746,00349;0,17149
239,30601;15,76351;745,83744;0,17174
239,60601;15,78349;747,33831;0,17198
239,90601;15,80357;746,40145;0,17223
240,20601;15,82354;746,43902;0,17248
240,50601;15,84357;746,63647;0,17272
240,80601;15,86351;746,25416;0,17296
241,10601;15,88352;746,69598;0,17321
241,40601;15,90357;746,64582;0,17345
241,70601;15,92351;746,37323;0,17370
242,00601;15,94351;746,31055;0,17394
242,30601;15,96349;746,92159;0,17419
242,60601;15,98351;746,77118;0,17443
242,90601;16,00357;747,40415;0,17467
243,20601;16,02354;747,05007;0,17492
243,50601;16,04357;747,18478;0,17516
243,80601;16,06354;746,76489;0,17541
244,10601;16,08351;747,42292;0,17565
244,40601;16,10354;747,44173;0,17589
244,70601;16,12354;748,22195;0,17614
245,00601;16,14351;748,75779;0,17638
245,30601;16,16348;748,31597;0,17663
245,60601;16,18348;748,24388;0,17687
245,90601;16,20357;748,16244;0,17712
246,20601;16,22354;747,97757;0,17736
246,50601;16,24354;748,28775;0,17761
246,80601;16,26360;748,70763;0,17785
247,10601;16,28351;748,25641;0,17809
247,40601;16,30351;749,17139;0,17834
247,70601;16,32351;748,68258;0,17858
248,00601;16,34349;749,14005;0,17882
248,30601;16,36354;749,10247;0,17907
248,60601;16,38348;749,04603;0,17931
248,90601;16,40357;749,71975;0,17955
249,20601;16,42354;749,06796;0,17980
249,50601;16,44354;749,22154;0,18004
249,80601;16,46357;749,28417;0,18029
250,10601;16,48351;748,74209;0,18053
250,40601;16,50354;749,34373;0,18077
250,70601;16,52348;749,68841;0,18102
251,00601;16,54354;749,74168;0,18126
251,30601;16,56351;749,75109;0,18151
251,60601;16,58346;750,15528;0,18175
251,90601;16,60357;750,18350;0,18199
252,20601;16,62354;750,51561;0,18223
252,50601;16,64357;750,89475;0,18248
252,80601;16,66354;749,69153;0,18272
253,10601;16,68351;750,23677;0,18296
253,40601;16,70354;750,59081;0,18321
253,70601;16,72348;750,13335;0,18345
254,00601;16,74354;749,61944;0,18369
254,30601;16,76351;751,64051;0,18393
254,60601;16,78349;750,82583;0,18418
254,90601;16,80354;750,78509;0,18442
255,20601;16,82354;751,23003;0,18466
255,50601;16,84357;751,12353;0,18490
255,80601;16,86354;751,12353;0,18514
256,10601;16,88351;751,45564;0,18539
256,40601;16,90354;751,51520;0,18563
256,70601;16,92351;750,97312;0,18587
257,00601;16,94351;751,35538;0,18611
257,30601;16,96351;751,99148;0,18635
257,60601;16,98348;750,65661;0,18659
257,90601;17,00354;751,30523;0,18683
258,20601;17,02354;751,28959;0,18707
258,50601;17,04357;751,57471;0,18732
258,80601;17,06354;751,85047;0,18756
259,10601;17,08349;751,02951;0,18780
259,40601;17,10351;752,04475;0,18804
259,70601;17,12357;752,41760;0,18828
260,00601;17,14351;751,80973;0,18852
260,30601;17,16351;752,64010;0,18877
260,60601;17,18348;752,48657;0,18901
260,90601;17,20354;752,38002;0,18925
261,20601;17,22357;752,29541;0,18949
261,50601;17,24357;753,32946;0,18973
261,80601;17,26357;752,80927;0,18997
262,10601;17,28351;752,77169;0,19021
262,40601;17,30354;752,75917;0,19045
262,70601;17,32351;753,06939;0,19069
263,00601;17,34351;753,01612;0,19094
263,30601;17,36351;753,34511;0,19117
263,60601;17,38346;753,62399;0,19142
263,90601;17,40357;752,88136;0,19166
264,20601;17,42357;753,85584;0,19190
264,50601;17,44357;754,06265;0,19214
264,80601;17,46354;753,30436;0,19238
265,10601;17,48348;753,73994;0,19262
265,40601;17,50357;752,90641;0,19286
265,70601;17,52351;754,08774;0,19310
266,00601;17,54354;754,23815;0,19334
266,30601;17,56351;753,99061;0,19358
266,60601;17,58343;754,67369;0,19382
266,90601;17,60357;753,83391;0,19406
267,20601;17,62354;754,54833;0,19430
267,50601;17,64357;754,54833;0,19454
267,80601;17,66354;754,10027;0,19478
268,10601;17,68354;755,06223;0,19502
268,40601;17,70357;754,81469;0,19526
268,70601;17,72351;754,84291;0,19550
269,00601;17,74354;755,44766;0,19574
269,30601;17,76351;755,20324;0,19598
269,60601;17,78348;754,67369;0,19622
269,90601;17,80357;755,49465;0,19646
270,20601;17,82354;755,38182;0,19670
270,50601;17,84357;755,54475;0,19694
270,80601;17,86351;755,04654;0,19718
271,10601;17,88351;755,44450;0,19742
271,40601;17,90354;756,10564;0,19766
271,70601;17,92351;755,48212;0,19790
272,00601;17,94348;757,15850;0,19814
272,30601;17,96348;756,46914;0,19838
272,60601;17,98351;756,15891;0,19862
272,90601;18,00357;756,50671;0,19886
273,20601;18,02354;756,57568;0,19910
273,50601;18,04357;756,18401;0,19934
273,80601;18,06351;756,55687;0,19958
274,10601;18,08351;755,69833;0,19982
274,40601;18,10354;756,34066;0,20005
274,70601;18,12354;756,28739;0,20029
275,00601;18,14351;757,09894;0,20053
275,30601;18,16351;756,92348;0,20077
275,60601;18,18348;756,73861;0,20101
275,90601;18,20354;757,12088;0,20125
276,20601;18,22354;757,11147;0,20149
276,50601;18,24357;756,46285;0,20173
276,80601;18,26360;757,03315;0,20197
277,10601;18,28351;757,05820;0,20220
277,40601;18,30354;757,20237;0,20244
277,70601;18,32351;757,97630;0,20268
278,00601;18,34348;757,40605;0,20292
278,30601;18,36354;757,07077;0,20316
278,60601;18,38348;757,20237;0,20340
278,90601;18,40360;757,74132;0,20364
279,20601;18,42357;757,38723;0,20388
279,50601;18,44354;757,52512;0,20413
279,80601;18,46357;757,57839;0,20437
280,10601;18,48351;757,62849;0,20461
280,40601;18,50357;758,37425;0,20485
280,70601;18,52348;758,21443;0,20510
281,00601;18,54354;758,15804;0,20535
281,30601;18,56351;756,73549;0,20562
281,43401;18,57206;119,66933;0,24204
281,73401;18,59206;6,27066;0,26118
282,03401;18,61203;8,24472;0,26579
282,33401;18,63203;7,71830;0,26930
282,63401;18,65206;7,28589;0,27210
282,93401;18,67206;7,40183;0,27448
283,23401;18,69211;7,67130;0,27666
283,53401;18,71209;7,95018;0,27859
283,83401;18,73209;7,40183;0,28041
284,13401;18,75212;7,61803;0,28199
284,43401;18,77206;7,37676;0,28359
284,73401;18,79206;7,20442;0,28506
285,03401;18,81203;9,15028;0,28645
285,04201;18,81257;8,70533;0,28649