File: 02_Appendices/Appendix_C_Experimental_Data/C_1_Materials_Tests/C_1_1_Tensile_tests/C_1_1_4_Impact Smooth 3D2/Specimen_RawData_8.csv
Text Inputs : Specimen label;"1"
Dimension : Length;50,00000;mm
Dimension : Final length;100,00000;mm
Test : Rate 1;4,00000;mm/min
General : Unique Identifier;"{299842E3-C6F9-4985-AFEC-FA4B1AB70FEF}"

Time;Extension;Load;Strain 1
(sec);(mm);(N);(mm/mm)
0,00000;0,00000;6,22832;0,00016
0,30000;0,01678;8,52513;0,00018
0,60000;0,03877;18,58342;0,00048
0,90000;0,05960;26,36372;0,00073
1,20000;0,08003;33,99987;0,00098
1,50000;0,10006;41,26315;0,00121
1,80000;0,12003;47,52687;0,00144
2,10000;0,14003;54,64915;0,00166
2,40000;0,15994;60,05744;0,00189
2,70000;0,18009;66,49037;0,00213
3,00000;0,19997;73,29930;0,00235
3,30000;0,21997;80,30251;0,00257
3,60000;0,23997;85,36612;0,00278
3,90000;0,25991;88,30840;0,00295
4,20000;0,28006;89,80305;0,00305
4,50000;0,30006;89,33931;0,00311
4,80000;0,32006;89,86886;0,00315
5,10000;0,33997;90,64907;0,00318
5,40000;0,35997;90,16653;0,00321
5,70000;0,38006;90,37646;0,00324
6,00000;0,39994;91,89931;0,00330
6,30000;0,41997;92,58867;0,00334
6,60000;0,43994;93,87963;0,00337
6,90000;0,45994;92,85500;0,00338
7,20000;0,48000;92,11239;0,00339
7,50000;0,50000;93,31562;0,00342
7,80000;0,52008;93,49423;0,00345
8,10000;0,54003;94,90740;0,00347
8,40000;0,55997;94,38725;0,00349
8,70000;0,58006;96,72166;0,00355
9,00000;0,59997;98,52964;0,00362
9,30000;0,61997;102,23022;0,00372
9,60000;0,63994;104,40168;0,00379
9,90000;0,65994;108,10539;0,00393
10,20000;0,68003;113,41968;0,00411
10,50000;0,69997;119,14758;0,00430
10,80000;0,72003;124,44621;0,00448
11,10000;0,74008;130,11771;0,00468
11,40000;0,75997;135,22519;0,00487
11,70000;0,78000;141,05963;0,00506
12,00000;0,79997;146,05745;0,00526
12,30000;0,81994;151,68508;0,00545
12,60000;0,83997;156,90223;0,00564
12,90000;0,85991;161,42376;0,00583
13,20000;0,88008;166,59391;0,00602
13,50000;0,90006;171,50400;0,00620
13,80000;0,92003;175,87198;0,00638
14,10000;0,94003;180,80713;0,00657
14,40000;0,95997;185,00906;0,00674
14,70000;0,98000;189,53999;0,00692
15,00000;1,00000;194,01765;0,00709
15,30000;1,02006;198,15690;0,00726
15,60000;1,03997;203,11398;0,00743
15,90000;1,05986;206,79575;0,00759
16,20000;1,08003;209,90726;0,00776
16,50000;1,10003;214,55099;0,00793
16,80000;1,12006;218,37063;0,00809
17,10000;1,14003;222,92663;0,00825
17,40000;1,16000;225,57124;0,00841
17,70000;1,18006;229,26242;0,00856
18,00000;1,19991;233,24501;0,00872
18,30000;1,22000;237,69448;0,00888
18,60000;1,24000;240,59915;0,00903
18,90000;1,25988;243,99578;0,00919
19,20000;1,28003;248,08804;0,00935
19,50000;1,30003;251,47214;0,00951
19,80000;1,32011;254,84683;0,00966
20,10000;1,34000;259,39031;0,00982
20,40000;1,35994;261,99732;0,00997
20,70000;1,38003;264,85501;0,01012
21,00000;1,39997;268,54305;0,01028
21,30000;1,42000;273,33405;0,01043
21,60000;1,43997;276,33901;0,01058
21,90000;1,45994;278,75174;0,01074
22,20000;1,48003;281,85383;0,01088
22,50000;1,50000;286,33776;0,01104
22,80000;1,52006;288,91030;0,01119
23,10000;1,54003;293,37232;0,01134
23,40000;1,55991;295,08315;0,01149
23,70000;1,58003;299,06887;0,01165
24,00000;1,60003;302,12395;0,01180
24,30000;1,61997;306,32901;0,01196
24,60000;1,63991;310,14241;0,01211
24,90000;1,65991;313,64558;0,01227
25,20000;1,68003;316,50951;0,01243
25,50000;1,70005;320,65818;0,01258
25,80000;1,72006;323,98901;0,01275
26,10000;1,74005;327,96531;0,01291
26,40000;1,75997;330,94522;0,01307
26,70000;1,78003;334,71473;0,01324
27,00000;1,80000;338,95425;0,01341
27,30000;1,81997;342,12528;0,01358
27,60000;1,83991;346,72201;0,01376
27,90000;1,85988;350,51345;0,01393
28,20000;1,88005;354,62137;0,01412
28,50000;1,90005;358,99251;0,01431
28,80000;1,92003;362,98137;0,01450
29,10000;1,94003;367,97603;0,01469
29,40000;1,95994;372,27510;0,01489
29,70000;1,98003;376,06654;0,01509
30,00000;1,99997;381,42470;0,01529
30,30000;2,02003;385,18168;0,01549
30,60000;2,03994;390,77485;0,01570
30,90000;2,05985;394,20282;0,01591
31,20000;2,08008;399,16928;0,01612
31,50000;2,10003;402,73196;0,01633
31,80000;2,12003;408,52567;0,01654
32,10000;2,14005;414,06560;0,01676
32,40000;2,16003;417,93850;0,01698
32,70000;2,18008;423,36872;0,01720
33,00000;2,19991;427,56749;0,01742
33,30000;2,21997;432,36478;0,01765
33,60000;2,23997;437,64459;0,01789
33,90000;2,25988;442,45129;0,01811
34,20000;2,28005;446,96028;0,01834
34,50000;2,30005;452,56596;0,01856
34,80000;2,32005;456,88073;0,01880
35,10000;2,34000;462,99091;0,01904
35,40000;2,35997;467,13329;0,01927
35,70000;2,38003;472,34418;0,01952
36,00000;2,40000;478,09714;0,01975
36,30000;2,41997;482,29904;0,01999
36,60000;2,43994;487,40027;0,02024
36,90000;2,45994;492,65814;0,02048
37,20000;2,48003;498,32966;0,02072
37,50000;2,50003;501,45057;0,02096
37,80000;2,52005;507,25052;0,02121
38,10000;2,54003;513,02542;0,02146
38,40000;2,55997;517,85717;0,02170
38,70000;2,58003;522,54163;0,02196
39,00000;2,60000;528,62987;0,02220
39,30000;2,61994;532,76601;0,02246
39,60000;2,63991;539,03600;0,02270
39,90000;2,65994;543,52307;0,02296
40,20000;2,68003;548,55221;0,02322
40,50000;2,70003;552,92333;0,02346
40,80000;2,72008;558,35042;0,02372
41,10000;2,74005;563,36704;0,02397
41,40000;2,75997;568,33979;0,02423
41,70000;2,78003;573,17154;0,02449
42,00000;2,79997;578,41064;0,02474
42,30000;2,81994;582,53733;0,02500
42,60000;2,83997;588,68825;0,02526
42,90000;2,85991;593,38841;0,02552
43,20000;2,88005;598,73713;0,02578
43,50000;2,90005;602,65707;0,02604
43,80000;2,92003;607,26320;0,02630
44,10000;2,94005;612,95349;0,02655
44,40000;2,95997;617,27138;0,02682
44,70000;2,98003;623,28125;0,02708
45,00000;2,99997;626,92547;0,02734
45,30000;3,02002;632,00160;0,02761
45,60000;3,04000;636,94930;0,02787
45,90000;3,05988;641,62123;0,02813
46,20000;3,08002;646,72558;0,02840
46,50000;3,10002;650,93064;0,02867
46,80000;3,12002;655,76863;0,02893
47,10000;3,14003;661,20201;0,02920
47,40000;3,16000;665,23785;0,02947
47,70000;3,18005;670,43621;0,02973
48,00000;3,19991;674,76975;0,03000
48,30000;3,22000;679,07190;0,03027
48,60000;3,23997;684,90948;0,03054
48,90000;3,25991;689,10201;0,03081
49,20000;3,28002;693,59536;0,03108
49,50000;3,30002;698,06050;0,03136
49,80000;3,32011;702,90160;0,03163
50,10000;3,33997;707,69261;0,03190
50,40000;3,35994;712,74997;0,03217
50,70000;3,38005;716,78897;0,03245
51,00000;3,39997;721,61756;0,03272
51,30000;3,42000;726,28949;0,03300
51,60000;3,43997;731,13693;0,03327
51,90000;3,45994;735,00671;0,03355
52,20000;3,48002;739,31515;0,03383
52,50000;3,50002;743,02200;0,03411
52,80000;3,52005;748,10442;0,03439
53,10000;3,54002;752,92047;0,03467
53,40000;3,55994;756,82160;0,03494
53,70000;3,58002;761,56249;0,03522
54,00000;3,60002;765,48238;0,03551
54,30000;3,61997;769,77205;0,03578
54,60000;3,63994;774,10871;0,03607
54,90000;3,65991;778,69603;0,03634
55,20000;3,68002;783,02333;0,03663
55,50000;3,70002;787,00278;0,03691
55,80000;3,72005;791,51485;0,03720
56,10000;3,74008;796,32159;0,03749
56,40000;3,75997;799,33275;0,03777
56,70000;3,78000;804,31178;0,03806
57,00000;3,80000;807,49532;0,03835
57,30000;3,81997;812,51506;0,03864
57,60000;3,83991;816,62610;0,03893
57,90000;3,85994;820,09798;0,03921
58,20000;3,88011;824,03673;0,03951
58,50000;3,90005;828,48929;0,03979
58,80000;3,92002;832,29328;0,04008
59,10000;3,94002;837,20339;0,04036
59,40000;3,95997;840,78172;0,04065
59,70000;3,98005;844,64839;0,04094
60,00000;3,99997;848,72497;0,04123
60,30000;4,02002;851,96178;0,04152
60,60000;4,03997;856,28275;0,04181
60,90000;4,05985;859,20626;0,04211
61,20000;4,08008;862,88489;0,04240
61,50000;4,10002;866,62313;0,04270
61,80000;4,12002;870,33622;0,04299
62,10000;4,14000;874,67600;0,04328
62,40000;4,15999;877,78438;0,04357
62,70000;4,18008;880,79870;0,04387
63,00000;4,19994;884,19216;0,04416
63,30000;4,21997;887,30995;0,04445
63,60000;4,23994;892,12293;0,04474
63,90000;4,25991;895,34093;0,04504
64,20000;4,28005;898,60912;0,04533
64,50000;4,30005;902,06210;0,04563
64,80000;4,32005;905,61854;0,04593
65,10000;4,34002;909,00576;0,04623
65,40000;4,35997;912,88183;0,04652
65,70000;4,38002;914,70238;0,04682
66,00000;4,39997;919,39000;0,04712
66,30000;4,41994;922,15361;0,04742
66,60000;4,43994;926,84757;0,04772
66,90000;4,45997;928,26383;0,04802
67,20000;4,48002;931,76076;0,04832
67,50000;4,49999;934,41475;0,04862
67,80000;4,52005;938,16863;0,04893
68,10000;4,53999;942,03213;0,04923
68,40000;4,55997;944,29757;0,04953
68,70000;4,58005;946,84195;0,04984
69,00000;4,59999;950,81823;0,05015
69,30000;4,61997;953,12130;0,05046
69,51800;4,63455;955,77845;0,05068
69,72800;4,64843;957,42345;0,05089
70,02800;4,66837;961,56271;0,05120
70,32800;4,68837;963,49921;0,05150
70,62800;4,70837;967,28755;0,05182
70,92800;4,72837;969,60003;0,05213
71,22800;4,74843;971,93439;0,05244
71,52800;4,76837;975,65688;0,05275
71,82800;4,78843;978,03827;0,05306
72,12800;4,80843;980,24113;0,05338
72,42800;4,82846;984,05760;0,05369
72,72800;4,84846;987,17846;0,05400
73,02800;4,86840;989,19645;0,05432
73,32800;4,88840;991,64052;0,05464
73,62800;4,90834;994,18173;0,05495
73,92800;4,92834;996,58193;0,05528
74,22800;4,94840;999,43643;0,05560
74,52800;4,96840;1003,16210;0,05592
74,82800;4,98843;1005,58111;0,05623
75,12800;5,00846;1006,92846;0,05656
75,42800;5,02848;1010,68234;0,05688
75,72800;5,04840;1012,94462;0,05720
76,02800;5,06837;1015,78357;0,05752
76,32800;5,08840;1017,41292;0,05784
76,62800;5,10834;1019,90402;0,05816
76,92800;5,12834;1022,65198;0,05849
77,22800;5,14834;1025,17130;0,05881
77,52800;5,16843;1027,99134;0,05914
77,82800;5,18846;1029,19145;0,05947
78,12800;5,20843;1031,96772;0,05979
78,42800;5,22848;1034,54022;0,06012
78,72800;5,24843;1036,71169;0,06046
79,02800;5,26837;1038,81732;0,06078
79,32800;5,28837;1040,54697;0,06111
79,62800;5,30843;1042,68398;0,06144
79,92800;5,32837;1045,36936;0,06178
80,22800;5,34831;1047,14287;0,06211
80,52800;5,36843;1049,39584;0,06244
80,82800;5,38840;1050,23868;0,06278
81,12800;5,40840;1053,38776;0,06311
81,42800;5,42848;1055,33674;0,06345
81,72800;5,44846;1056,14522;0,06379
82,02800;5,46843;1058,53910;0,06412
82,32800;5,48837;1061,08971;0,06446
82,62800;5,50837;1063,04185;0,06480
82,92800;5,52834;1064,99083;0,06514
83,22800;5,54834;1066,68295;0,06548
83,52800;5,56837;1069,56875;0,06582
83,82800;5,58848;1069,91660;0,06616
84,12800;5,60846;1072,04104;0,06651
84,42800;5,62840;1074,55412;0,06685
84,72800;5,64840;1075,11180;0,06719
85,02800;5,66837;1077,97263;0,06754
85,32800;5,68840;1079,16333;0,06789
85,62800;5,70837;1080,76762;0,06823
85,92800;5,72840;1082,21844;0,06859
86,22800;5,74840;1083,67233;0,06893
86,52800;5,76837;1085,90648;0,06928
86,82800;5,78845;1086,85903;0,06963
87,12800;5,80845;1089,05872;0,06998
87,42800;5,82843;1089,31875;0,07033
87,72800;5,84840;1091,53101;0,07068
88,02800;5,86840;1093,23869;0,07104
88,32800;5,88843;1094,34165;0,07138
88,62800;5,90834;1095,73603;0,07174
88,92800;5,92837;1097,50014;0,07210
89,22800;5,94837;1099,22355;0,07245
89,52800;5,96840;1100,65555;0,07281
89,82800;5,98845;1101,80238;0,07317
90,12800;6,00845;1103,59155;0,07353
90,42800;6,02845;1103,95188;0,07389
90,72800;6,04837;1105,73163;0,07425
91,02800;6,06837;1106,55893;0,07461
91,32800;6,08843;1108,14758;0,07497
91,62800;6,10837;1109,18470;0,07533
91,92800;6,12831;1110,82038;0,07570
92,22800;6,14834;1111,87948;0,07606
92,52800;6,16843;1113,55269;0,07642
92,82800;6,18845;1114,28592;0,07679
93,12800;6,20843;1115,18838;0,07715
93,42800;6,22848;1116,65167;0,07751
93,72800;6,24840;1117,37857;0,07788
94,02800;6,26837;1119,38082;0,07824
94,32800;6,28837;1119,66915;0,07862
94,62800;6,30840;1121,15443;0,07898
94,92800;6,32837;1121,69646;0,07936
95,22800;6,34834;1122,66783;0,07973
95,52800;6,36843;1124,17499;0,08010
95,82800;6,38843;1123,83971;0,08047
96,12800;6,40845;1126,24615;0,08085
96,42800;6,42843;1126,23051;0,08122
96,72800;6,44845;1127,48081;0,08159
97,02800;6,46845;1129,13204;0,08196
97,32800;6,48837;1130,04074;0,08233
97,62800;6,50837;1130,22253;0,08271
97,92800;6,52834;1131,39125;0,08309
98,22800;6,54837;1131,98664;0,08347
98,52800;6,56843;1133,18991;0,08384
98,82800;6,58848;1132,75433;0,08422
99,12800;6,60845;1134,05474;0,08460
99,42800;6,62840;1134,86936;0,08498
99,72800;6,64843;1135,90024;0,08536
100,02800;6,66840;1136,61466;0,08573
100,32800;6,68837;1137,16619;0,08612
100,62800;6,70840;1137,89318;0,08650
100,92800;6,72834;1138,51987;0,08689
101,22800;6,74840;1139,45985;0,08727
101,52800;6,76834;1140,67560;0,08764
101,82800;6,78845;1140,95761;0,08803
102,12800;6,80845;1141,58746;0,08841
102,42800;6,82845;1142,37396;0,08880
102,72800;6,84840;1142,48674;0,08919
103,02800;6,86837;1143,38286;0,08956
103,32800;6,88843;1143,33276;0,08995
103,62800;6,90834;1144,50464;0,09034
103,92800;6,92837;1144,96844;0,09074
104,22800;6,94840;1145,88337;0,09113
104,52800;6,96840;1146,09962;0,09151
104,82800;6,98843;1147,05842;0,09190
105,12800;7,00842;1146,98317;0,09229
105,42801;7,02848;1148,35249;0,09269
105,72801;7,04840;1148,49666;0,09308
106,02801;7,06837;1149,09196;0,09347
106,32801;7,08840;1149,13583;0,09386
106,62801;7,10834;1149,13275;0,09426
106,92801;7,12837;1149,83777;0,09466
107,22801;7,14837;1150,44564;0,09505
107,52801;7,16845;1151,90893;0,09545
107,82801;7,18842;1152,21916;0,09584
108,12801;7,20842;1152,17213;0,09624
108,42801;7,22845;1152,02488;0,09664
108,72801;7,24840;1152,77376;0,09704
109,02801;7,26837;1153,02755;0,09744
109,32801;7,28837;1152,74247;0,09783
109,62801;7,30842;1154,35617;0,09824
109,92801;7,32837;1154,29666;0,09863
110,22801;7,34834;1154,57550;0,09903
110,52801;7,36840;1155,49983;0,09943
110,82801;7,38842;1155,16456;0,09983
111,12801;7,40845;1154,74779;0,10024
111,42801;7,42845;1156,16415;0,10065
111,72801;7,44845;1156,82846;0,10105
112,02801;7,46840;1157,20127;0,10146
112,32801;7,48834;1156,55893;0,10185
112,62801;7,50837;1156,54953;0,10226
112,92801;7,52834;1157,30157;0,10267
113,22801;7,54837;1157,04462;0,10307
113,52801;7,56842;1158,10372;0,10348
113,82801;7,58848;1157,97529;0,10389
114,12801;7,60848;1158,12877;0,10429
114,42801;7,62840;1159,21926;0,10470
114,72801;7,64840;1158,44524;0,10511
115,02801;7,66840;1158,47345;0,10552
115,32801;7,68842;1159,29758;0,10593
115,62801;7,70837;1159,49502;0,10633
115,92801;7,72834;1159,33204;0,10675
116,22801;7,74840;1159,45740;0,10716
116,52801;7,76837;1159,70178;0,10757
116,82801;7,78845;1160,37549;0,10797
117,12801;7,80845;1159,56077;0,10839
117,42801;7,82845;1160,27202;0,10880
117,72801;7,84837;1160,68255;0,10921
118,02801;7,86837;1161,06486;0,10962
118,32801;7,88840;1161,30300;0,11003
118,62801;7,90837;1160,09349;0,11044
118,92801;7,92837;1160,70760;0,11086
119,22801;7,94837;1161,32805;0,11127
119,52801;7,96840;1161,89523;0,11169
119,82801;7,98845;1160,59165;0,11211
120,12801;8,00845;1161,21834;0,11252
120,42801;8,02848;1161,15259;0,11294
120,72801;8,04839;1161,51916;0,11335
121,02801;8,06837;1161,92652;0,11377
121,32801;8,08842;1162,18347;0,11419
121,62801;8,10837;1161,52233;0,11460
121,92801;8,12834;1161,58500;0,11502
122,22801;8,14837;1162,47172;0,11544
122,52801;8,16845;1161,89830;0,11586
122,82801;8,18845;1161,37816;0,11628
123,12801;8,20842;1161,63511;0,11670
123,42801;8,22845;1162,39963;0,11712
123,72801;8,24840;1162,90106;0,11754
124,02801;8,26837;1162,13644;0,11796
124,32801;8,28839;1162,46548;0,11838
124,62801;8,30839;1162,22417;0,11880
124,92801;8,32837;1162,15209;0,11922
125,22801;8,34831;1162,52182;0,11964
125,52801;8,36842;1162,40280;0,12006
125,82801;8,38842;1161,20270;0,12048
126,12801;8,40842;1162,74124;0,12091
126,42801;8,42842;1162,11139;0,12133
126,72801;8,44845;1161,81998;0,12175
127,02801;8,46839;1163,44932;0,12217
127,32801;8,48834;1162,35893;0,12259
127,62801;8,50839;1162,02990;0,12302
127,92801;8,52834;1162,21793;0,12345
128,22801;8,54837;1162,14901;0,12387
128,52801;8,56839;1162,58767;0,12430
128,82801;8,58845;1161,85443;0,12473
129,12801;8,60845;1161,53797;0,12516
129,42801;8,62839;1162,58450;0,12558
129,72801;8,64842;1162,86026;0,12601
130,02801;8,66839;1163,00127;0,12643
130,32801;8,68837;1162,09574;0,12686
130,62801;8,70837;1161,42826;0,12729
130,92801;8,72837;1161,75106;0,12772
131,22801;8,74839;1162,34953;0,12815
131,52801;8,76839;1162,97621;0,12859
131,82801;8,78845;1161,32805;0,12902
132,12801;8,80845;1162,02990;0,12945
132,42801;8,82845;1162,23982;0,12988
132,72801;8,84842;1162,29001;0,13031
133,02801;8,86839;1162,48736;0,13074
133,32801;8,88842;1161,93593;0,13117
133,62801;8,90834;1161,54114;0,13160
133,92801;8,92837;1162,24298;0,13203
134,22801;8,94839;1161,61006;0,13246
134,52801;8,96839;1162,86026;0,13289
134,82801;8,98839;1161,70095;0,13332
135,12801;9,00845;1160,73582;0,13376
135,42801;9,02848;1160,76088;0,13419
135,72801;9,04837;1161,38756;0,13462
136,02801;9,06836;1161,58500;0,13505
136,32801;9,08839;1160,98337;0,13548
136,62801;9,10837;1160,82355;0,13592
136,92801;9,12837;1160,28143;0,13635
137,22801;9,14837;1161,49094;0,13678
137,52801;9,16845;1160,84861;0,13721
137,82801;9,18845;1160,44441;0,13765
138,12801;9,20842;1160,40055;0,13808
138,42801;9,22845;1159,70178;0,13852
138,72801;9,24839;1161,16507;0,13895
139,02801;9,26836;1160,62928;0,13938
139,32801;9,28836;1159,92744;0,13982
139,62801;9,30842;1160,47887;0,14026
139,92801;9,32837;1159,74247;0,14069
140,22801;9,34834;1160,40055;0,14113
140,52801;9,36842;1160,41303;0,14156
140,82801;9,38845;1159,27253;0,14200
141,12801;9,40842;1159,93051;0,14244
141,42801;9,42842;1159,66415;0,14288
141,72801;9,44845;1160,34104;0,14331
142,02801;9,46839;1160,44758;0,14375
142,32801;9,48834;1158,56435;0,14418
142,62801;9,50839;1159,36650;0,14462
142,92801;9,52834;1159,06261;0,14507
143,22801;9,54834;1159,39155;0,14551
143,52801;9,56842;1159,58899;0,14595
143,82801;9,58848;1158,05985;0,14638
144,12801;9,60848;1158,45157;0,14682
144,42801;9,62839;1158,25413;0,14727
144,72801;9,64839;1158,58316;0,14771
145,02801;9,66837;1158,36067;0,14814
145,32801;9,68839;1158,21343;0,14858
145,62801;9,70839;1158,15075;0,14902
145,92801;9,72839;1158,01599;0,14947
146,22801;9,74839;1158,41078;0,14991
146,52801;9,76836;1158,74922;0,15034
146,82801;9,78845;1157,07908;0,15079
147,12801;9,80845;1157,72458;0,15123
147,42801;9,82845;1158,00351;0,15167
147,72801;9,84839;1157,48020;0,15211
148,02801;9,86839;1157,95024;0,15255
148,32801;9,88842;1158,09124;0,15300
148,62801;9,90834;1158,16956;0,15344
148,92801;9,92834;1157,38306;0,15389
149,22801;9,94839;1157,33603;0,15434
149,52801;9,96839;1157,90945;0,15477
149,82801;9,98845;1156,17355;0,15522
150,12801;10,00845;1156,41486;0,15566
150,42801;10,02845;1155,38388;0,15610
150,72801;10,04839;1156,46813;0,15655
151,02801;10,06836;1156,90362;0,15699
151,32801;10,08842;1156,24564;0,15743
151,62801;10,10839;1155,97611;0,15788
151,92801;10,12834;1156,23930;0,15833
152,22801;10,14836;1156,60597;0,15877
152,52801;10,16845;1155,48419;0,15922
152,82801;10,18845;1155,68470;0,15966
153,12801;10,20842;1155,82570;0,16009
153,42801;10,22845;1156,04196;0,16054
153,72801;10,24839;1155,73173;0,16098
154,02801;10,26836;1155,86957;0,16143
154,32801;10,28839;1154,57866;0,16187
154,62801;10,30839;1154,45955;0,16232
154,92801;10,32836;1155,00791;0,16276
155,22801;10,34834;1154,59114;0,16321
155,52801;10,36845;1155,67222;0,16365
155,82801;10,38842;1154,36865;0,16410
156,12801;10,40842;1154,72591;0,16454
156,42801;10,42845;1154,67580;0,16499
156,72801;10,44845;1154,07417;0,16544
157,02801;10,46842;1154,63194;0,16588
157,32801;10,48836;1154,68828;0,16633
157,62801;10,50836;1154,20260;0,16678
157,92801;10,52834;1154,17130;0,16722
158,22801;10,54836;1154,27468;0,16767
158,52801;10,56839;1154,04278;0,16812
158,82801;10,58851;1153,70750;0,16856
159,12801;10,60845;1153,46937;0,16901
159,42801;10,62839;1153,80157;0,16945
159,72801;10,64842;1153,61977;0,16991
160,02801;10,66839;1154,19319;0,17035
160,32801;10,68839;1153,29083;0,17080
160,62801;10,70839;1153,14350;0,17124
160,92801;10,72836;1153,34094;0,17170
161,22801;10,74839;1152,22540;0,17214
161,52801;10,76836;1152,79881;0,17259
161,82801;10,78842;1152,76435;0,17304
162,12801;10,80845;1152,50116;0,17349
162,42801;10,82848;1151,43582;0,17393
162,72801;10,84839;1152,31005;0,17438
163,02801;10,86839;1152,85842;0,17484
163,32801;10,88839;1151,46404;0,17528
163,62801;10,90834;1152,74247;0,17573
163,92801;10,92839;1153,60729;0,17618
164,22801;10,94839;1151,89645;0,17663
164,52801;10,96839;1152,48868;0,17708
164,82801;10,98842;1151,82437;0,17753
165,12801;11,00842;1151,46711;0,17799
165,42801;11,02848;1151,40136;0,17844
165,72801;11,04842;1151,48593;0,17889
166,02801;11,06836;1151,31047;0,17934
166,32801;11,08842;1151,14748;0,17979
166,62801;11,10836;1150,72764;0,18024
166,92801;11,12836;1152,09697;0,18069
167,22801;11,14836;1151,31047;0,18114
167,52801;11,16845;1150,57724;0,18158
167,82801;11,18845;1150,37048;0,18204
168,12801;11,20842;1151,47652;0,18249
168,42801;11,22848;1150,39553;0,18294
168,72801;11,24839;1150,35167;0,18339
169,02801;11,26833;1150,98776;0,18384
169,32801;11,28836;1151,09114;0,18429
169,62801;11,30845;1150,74646;0,18475
169,92801;11,32839;1150,17304;0,18520
170,22801;11,34836;1150,78716;0,18565
170,52801;11,36839;1150,81854;0,18610
170,82801;11,38842;1149,85965;0,18655
171,12801;11,40845;1149,37713;0,18701
171,42801;11,42845;1149,52438;0,18746
171,72801;11,44845;1149,80331;0,18790
172,02801;11,46839;1149,88787;0,18835
172,32801;11,48833;1149,20167;0,18880
172,62801;11,50839;1149,51814;0,18925
172,92801;11,52836;1149,70617;0,18971
173,22801;11,54836;1149,27059;0,19016
173,52801;11,56842;1149,58398;0,19061
173,82801;11,58845;1148,90086;0,19106
174,12801;11,60848;1148,43715;0,19152
174,42801;11,62839;1150,16988;0,19196
174,72801;11,64839;1149,09830;0,19241
175,02801;11,66839;1149,11394;0,19285
175,32801;11,68839;1148,57499;0,19331
175,62801;11,70839;1149,78766;0,19376
175,92801;11,72836;1148,56875;0,19422
176,22801;11,74839;1147,47519;0,19467
176,52801;11,76836;1148,94789;0,19512
176,82801;11,78845;1148,77867;0,19557
177,12801;11,80845;1148,36190;0,19602
177,42801;11,82842;1148,15515;0,19648
177,72801;11,84839;1148,52171;0,19693
178,02801;11,86839;1149,51506;0,19737
178,32801;11,88842;1148,47161;0,19783
178,62801;11,90833;1147,59114;0,19828
178,92801;11,92836;1148,06741;0,19874
179,22801;11,94839;1148,44022;0,19919
179,52801;11,96842;1147,84800;0,19965
179,82801;11,98848;1147,48767;0,20010
180,12801;12,00845;1148,02979;0,20056
180,42801;12,02842;1148,09871;0,20101
180,72801;12,04839;1147,73521;0,20146
181,02801;12,06839;1147,33726;0,20192
181,32801;12,08845;1147,80106;0,20237
181,62801;12,10839;1148,95096;0,20282
181,92801;12,12833;1147,67253;0,20328
182,22801;12,14836;1148,08930;0,20374
182,52801;12,16845;1147,82611;0,20419
182,82801;12,18842;1148,45280;0,20464
183,12801;12,20845;1147,55975;0,20509
183,42801;12,22848;1146,28132;0,20555
183,72801;12,24839;1147,51905;0,20600
184,02801;12,26836;1148,95729;0,20645
184,32801;12,28836;1147,25269;0,20691
184,62801;12,30839;1147,61926;0,20737
184,92801;12,32836;1147,51589;0,20782
185,22801;12,34830;1147,65065;0,20827
185,52801;12,36845;1147,02396;0,20873
185,82801;12,38845;1146,24687;0,20918
186,12801;12,40842;1147,03337;0,20963
186,42801;12,42845;1147,50965;0,21009
186,72801;12,44845;1146,30321;0,21055
187,02801;12,46842;1147,26210;0,21100
187,32801;12,48836;1147,02396;0,21145
187,62801;12,50836;1146,88920;0,21190
187,92801;12,52833;1146,43797;0,21236
188,22801;12,54836;1146,28132;0,21282
188,52801;12,56842;1147,33726;0,21328
188,82801;12,58848;1147,07407;0,21373
189,12801;12,60845;1145,72672;0,21418
189,42801;12,62839;1146,20300;0,21464
189,72801;12,64842;1146,55709;0,21509
190,02801;12,66839;1146,94871;0,21554
190,32801;12,68839;1147,18685;0,21600
190,62801;12,70839;1146,23746;0,21645
190,92801;12,72836;1145,82386;0,21691
191,22801;12,74839;1145,96169;0,21737
191,52801;12,76836;1145,89278;0,21782
191,82801;12,78842;1145,71108;0,21827
192,12801;12,80845;1144,96844;0,21873
192,42801;12,82847;1145,38521;0,21918
192,72801;12,84842;1145,66404;0,21963
193,02801;12,86836;1147,61926;0,22008
193,32801;12,88839;1146,13408;0,22054
193,62801;12,90836;1145,26292;0,22100
193,92801;12,92836;1145,50106;0,22145
194,22801;12,94839;1145,34441;0,22191
194,52801;12,96839;1145,84891;0,22236
194,82801;12,98839;1145,44472;0,22281
195,12801;13,00845;1145,69850;0,22326
195,42801;13,02850;1145,10944;0,22372
195,72801;13,04839;1145,40085;0,22418
196,02801;13,06836;1145,37580;0,22463
196,32801;13,08839;1146,40351;0,22509
196,62801;13,10836;1146,01189;0,22554
196,92801;13,12836;1145,87080;0,22600
197,22801;13,14836;1145,26292;0,22645
197,52801;13,16845;1145,71108;0,22691
197,82801;13,18845;1145,51680;0,22736
198,12801;13,20842;1145,59820;0,22782
198,42801;13,22847;1144,61435;0,22828
198,72801;13,24839;1145,25352;0,22873
199,02801;13,26836;1146,05576;0,22919
199,32801;13,28836;1146,20924;0,22964
199,62801;13,30842;1145,38521;0,23009
199,92801;13,32833;1145,25352;0,23055
200,22801;13,34833;1145,08122;0,23100
200,52801;13,36839;1146,16221;0,23145
200,82801;13,38842;1144,68327;0,23190
201,12801;13,40845;1145,25985;0,23236
201,42801;13,42845;1144,45770;0,23282
201,72801;13,44842;1145,74553;0,23327
202,02801;13,46839;1145,18153;0,23373
202,32801;13,48833;1145,56374;0,23418
202,62801;13,50842;1145,46036;0,23464
202,92801;13,52836;1145,82693;0,23510
203,22801;13,54836;1144,12550;0,23555
203,52801;13,56839;1145,25668;0,23601
203,82801;13,58847;1144,16629;0,23646
204,12801;13,60848;1144,09421;0,23693
204,42801;13,62842;1144,95587;0,23738
204,72801;13,64842;1145,46660;0,23784
205,02801;13,66839;1145,70474;0,23829
205,32801;13,68839;1144,92765;0,23876
205,62801;13,70839;1144,26967;0,23921
205,92801;13,72839;1145,31312;0,23967
206,22801;13,74839;1145,05300;0,24012
206,52801;13,76836;1144,93081;0,24058
206,82801;13,78845;1144,25709;0,24104
207,12801;13,80845;1145,55126;0,24150
207,42801;13,82845;1145,64206;0,24196
207,72801;13,84839;1144,82744;0,24241
208,02801;13,86839;1146,10894;0,24287
208,32801;13,88844;1145,08746;0,24332
208,62801;13,90833;1145,21906;0,24377
208,92801;13,92833;1145,72356;0,24423
209,22801;13,94839;1144,18818;0,24468
209,52801;13,96842;1145,24104;0,24513
209,82801;13,98845;1144,95587;0,24559
210,12801;14,00845;1144,67070;0,24605
210,42801;14,02847;1143,79339;0,24651
210,72801;14,04839;1145,33193;0,24696
211,02801;14,06836;1145,53245;0,24741
211,32801;14,08842;1144,78664;0,24787
211,62801;14,10839;1144,80546;0,24833
211,92801;14,12833;1144,47651;0,24878
212,22801;14,14836;1145,27866;0,24924
212,52801;14,16845;1144,82427;0,24969
212,82801;14,18845;1143,54901;0,25015
213,12801;14,20842;1145,24420;0,25061
213,42801;14,22842;1145,04676;0,25106
213,72801;14,24839;1144,55167;0,25152
214,02801;14,26839;1145,61394;0,25197
214,32801;14,28839;1145,22222;0,25242
214,62801;14,30842;1145,32560;0,25288
214,92801;14,32836;1145,87396;0,25334
215,22801;14,34833;1144,95903;0,25379
215,52801;14,36842;1145,17212;0,25424
215,82801;14,38842;1144,53286;0,25470
216,12801;14,40842;1144,82427;0,25515
216,42801;14,42844;1144,28531;0,25561
216,72801;14,44845;1144,36680;0,25606
217,02801;14,46839;1146,11834;0,25652
217,32801;14,48836;1144,68010;0,25697
217,62801;14,50836;1144,68951;0,25743
217,92801;14,52833;1144,82427;0,25789
218,22801;14,54836;1145,65147;0,25834
218,52801;14,56842;1145,31619;0,25880
218,82801;14,58847;1143,68061;0,25925
219,12801;14,60844;1145,26609;0,25970
219,42801;14,62839;1145,27866;0,26016
219,72801;14,64842;1145,04360;0,26062
220,02801;14,66839;1145,49482;0,26107
220,32801;14,68836;1145,40393;0,26152
220,62801;14,70839;1145,89902;0,26198
220,92801;14,72836;1145,72048;0,26244
221,22801;14,74842;1144,60178;0,26290
221,52801;14,76836;1145,67969;0,26335
221,82801;14,78844;1145,94288;0,26380
222,12801;14,80845;1144,78040;0,26425
222,42801;14,82844;1145,13766;0,26471
222,72801;14,84842;1145,85208;0,26516
223,02801;14,86839;1146,68244;0,26562
223,32801;14,88839;1145,46353;0,26608
223,62801;14,90833;1145,31619;0,26652
223,92801;14,92836;1145,81445;0,26699
224,22801;14,94839;1146,11527;0,26744
224,52801;14,96839;1145,65147;0,26790
224,82801;14,98842;1145,48234;0,26836
225,12801;15,00844;1145,69534;0,26881
225,42801;15,02850;1145,80505;0,26927
225,72801;15,04839;1145,98991;0,26972
226,02801;15,06836;1145,40393;0,27017
226,32801;15,08842;1145,97427;0,27063
226,62801;15,10836;1145,72048;0,27108
226,92801;15,12836;1145,79881;0,27154
227,22801;15,14836;1146,19983;0,27199
227,52801;15,16845;1146,06824;0,27245
227,82801;15,18844;1145,04052;0,27291
228,12801;15,20844;1146,39103;0,27336
228,42801;15,22847;1145,32560;0,27382
228,72801;15,24839;1146,52263;0,27428
229,02801;15,26836;1146,69176;0,27473
229,32801;15,28836;1146,24370;0,27518
229,62801;15,30844;1145,65464;0,27563
229,92801;15,32836;1146,43797;0,27609
230,22801;15,34833;1146,18735;0,27654
230,52801;15,36839;1146,61036;0,27699
230,82801;15,38842;1146,07448;0,27745
231,12801;15,40844;1146,23746;0,27790
231,42801;15,42847;1146,85157;0,27835
231,72801;15,44844;1146,61660;0,27882
232,02801;15,46839;1146,75444;0,27927
232,32801;15,48833;1146,03695;0,27972
232,62801;15,50839;1146,41292;0,28018
232,92801;15,52836;1146,54135;0,28063
233,22801;15,54836;1146,20300;0,28109
233,52801;15,56839;1146,63225;0,28154
233,82801;15,58847;1146,82028;0,28200
234,12801;15,60847;1146,32519;0,28245
234,42801;15,62839;1147,00515;0,28290
234,72801;15,64839;1148,04227;0,28336
235,02801;15,66839;1146,64482;0,28381
235,32801;15,68841;1147,11793;0,28427
235,62801;15,70839;1146,92366;0,28472
235,92801;15,72839;1146,68244;0,28517
236,22801;15,74838;1147,24012;0,28562
236,52801;15,76836;1146,82969;0,28608
236,82801;15,78844;1145,84574;0,28653
237,12801;15,80844;1147,07723;0,28699
237,42801;15,82844;1147,42815;0,28745
237,72801;15,84839;1146,78266;0,28790
238,02801;15,86836;1146,51630;0,28835
238,32801;15,88844;1147,35924;0,28881
238,62801;15,90836;1147,55975;0,28925
238,92801;15,92836;1147,22447;0,28971
239,22801;15,94839;1146,88920;0,29017
239,52801;15,96839;1147,85433;0,29062
239,82801;15,98841;1148,10811;0,29108
240,12801;16,00844;1147,34983;0,29154
240,42801;16,02847;1147,04901;0,29199
240,72801;16,04842;1147,46578;0,29245
241,02801;16,06839;1148,21149;0,29289
241,32801;16,08841;1148,20208;0,29335
241,62801;16,10836;1146,83909;0,29382
241,92801;16,12833;1147,13050;0,29427
242,22801;16,14838;1147,57856;0,29472
242,52801;16,16844;1147,44073;0,29517
242,82801;16,18844;1146,79523;0,29563
243,12801;16,20841;1146,73255;0,29608
243,42801;16,22844;1148,48725;0,29654
243,72801;16,24838;1148,28674;0,29699
244,02801;16,26839;1148,34001;0,29745
244,32801;16,28841;1148,51547;0,29791
244,62801;16,30841;1148,85699;0,29837
244,92801;16,32836;1147,57856;0,29882
245,22801;16,34833;1147,71016;0,29928
245,52801;16,36841;1148,56558;0,29973
245,82801;16,38847;1147,93265;0,30018
246,12801;16,40844;1148,44339;0,30063
246,42801;16,42844;1148,65648;0,30109
246,72801;16,44844;1147,66313;0,30154
247,02801;16,46841;1149,11394;0,30200
247,32801;16,48836;1148,22714;0,30245
247,62801;16,50836;1148,05168;0,30291
247,92801;16,52833;1148,16139;0,30336
248,22801;16,54836;1148,67529;0,30382
248,52801;16,56841;1149,30822;0,30427
248,82801;16,58844;1147,83235;0,30472
249,12801;16,60847;1148,88204;0,30518
249,42801;16,62838;1149,95996;0,30563
249,72801;16,64841;1149,36149;0,30608
250,02801;16,66839;1150,02263;0,30653
250,32801;16,68836;1149,15781;0,30698
250,62801;16,70836;1149,10770;0,30744
250,92801;16,72836;1149,28624;0,30789
251,22801;16,74841;1148,52171;0,30834
251,52801;16,76836;1149,85341;0,30879
251,82801;16,78844;1149,07948;0,30924
252,12801;16,80844;1149,04186;0,30970
252,42801;16,82844;1149,50873;0,31016
252,72801;16,84841;1149,41476;0,31061
253,02801;16,86838;1149,78449;0,31106
253,32801;16,88841;1150,27018;0,31152
253,62801;16,90836;1149,01057;0,31197
253,92801;16,92838;1149,48051;0,31243
254,22801;16,94839;1149,11711;0,31288
254,52801;16,96838;1149,97877;0,31333
254,82801;16,98844;1149,15781;0,31379
255,12801;17,00844;1149,69676;0,31424
255,42801;17,02850;1150,25453;0,31470
255,72801;17,04838;1149,49308;0,31515
256,02801;17,06836;1149,55259;0,31560
256,32801;17,08841;1149,85658;0,31605
256,62801;17,10836;1149,84401;0,31650
256,92801;17,12836;1149,66538;0,31696
257,22801;17,14836;1149,52754;0,31741
257,52801;17,16844;1150,09472;0,31786
257,82801;17,18841;1150,27959;0,31832
258,12801;17,20844;1151,00024;0,31877
258,42801;17,22847;1149,28316;0,31922
258,72801;17,24841;1150,29206;0,31968
259,02801;17,26836;1150,47069;0,32012
259,32801;17,28838;1149,92233;0,32057
259,62801;17,30841;1150,84676;0,32103
259,92801;17,32836;1150,78408;0,32148
260,22801;17,34836;1151,10362;0,32193
260,52801;17,36841;1150,74962;0,32238
260,82801;17,38844;1150,69002;0,32283
261,12801;17,40844;1151,79615;0,32329
261,42801;17,42844;1151,43582;0,32375
261,72801;17,44844;1150,64308;0,32420
262,02801;17,46838;1150,95954;0,32465
262,32801;17,48833;1150,49575;0,32510
262,62801;17,50838;1151,23838;0,32555
262,92801;17,52835;1150,96262;0,32601
263,22801;17,54836;1151,46087;0,32646
263,52801;17,56838;1151,92151;0,32692
263,82801;17,58847;1151,84942;0,32737
264,12801;17,60847;1151,25719;0,32782
264,42801;17,62838;1151,52979;0,32827
264,72801;17,64841;1151,85883;0,32872
265,02801;17,66838;1152,05627;0,32918
265,32801;17,68841;1151,57366;0,32963
265,62801;17,70836;1151,20709;0,33008
265,92801;17,72838;1151,95597;0,33053
266,22801;17,74838;1151,72723;0,33099
266,52801;17,76838;1151,99666;0,33144
266,82801;17,78844;1151,26977;0,33189
267,12801;17,80844;1152,31629;0,33234
267,42801;17,82841;1152,50433;0,33279
267,72801;17,84838;1151,91834;0,33324
268,02801;17,86836;1152,15648;0,33369
268,32801;17,88844;1152,09073;0,33414
268,62801;17,90838;1152,69227;0,33459
268,92801;17,92833;1152,21916;0,33504
269,22801;17,94838;1151,93715;0,33550
269,52801;17,96838;1152,27243;0,33594
269,82801;17,98844;1152,99001;0,33640
270,12801;18,00844;1151,66456;0,33685
270,42801;18,02847;1151,93091;0,33730
270,72801;18,04838;1152,38521;0,33775
271,02801;18,06835;1153,35351;0,33820
271,32801;18,08838;1152,99625;0,33865
271,62801;18,10835;1153,12468;0,33910
271,92801;18,12833;1152,25054;0,33956
272,22801;18,14836;1152,83327;0,34001
272,52801;18,16844;1153,19053;0,34047
272,82801;18,18844;1152,11261;0,34091
273,12801;18,20841;1153,93000;0,34136
273,42801;18,22841;1153,08082;0,34181
273,72801;18,24838;1153,10596;0,34226
274,02801;18,26838;1153,77018;0,34271
274,32801;18,28838;1153,71067;0,34316
274,62801;18,30838;1153,60096;0,34361
274,92801;18,32836;1153,60413;0,34406
275,22801;18,34833;1153,02447;0,34451
275,52801;18,36841;1154,23705;0,34496
275,82801;18,38844;1153,42867;0,34541
276,12801;18,40844;1154,03971;0,34586
276,42801;18,42844;1152,83960;0,34631
276,72801;18,44844;1153,81721;0,34676
277,02801;18,46838;1154,96404;0,34720
277,32801;18,48835;1153,88930;0,34765
277,62801;18,50838;1153,98951;0,34811
277,92801;18,52833;1154,23705;0,34856
278,22801;18,54838;1154,26844;0,34901
278,52801;18,56841;1155,05178;0,34946
278,82801;18,58847;1153,93000;0,34992
279,12801;18,60847;1153,78592;0,35037
279,42801;18,62838;1154,87315;0,35082
279,72801;18,64841;1154,34360;0,35127
280,02801;18,66838;1155,16456;0,35171
280,32801;18,68838;1154,65382;0,35216
280,62801;18,70838;1155,50924;0,35261
280,92801;18,72838;1155,04554;0,35306
281,22801;18,74841;1154,24646;0,35351
281,52801;18,76835;1156,16731;0,35396
281,82801;18,78844;1155,81322;0,35441
282,12801;18,80844;1154,86691;0,35486
282,42801;18,82847;1154,57550;0,35531
282,72801;18,84841;1155,69104;0,35576
283,02801;18,86838;1156,66240;0,35620
283,32801;18,88841;1155,74431;0,35665
283,62801;18,90833;1154,77294;0,35710
283,92801;18,92838;1156,19861;0,35755
284,22801;18,94838;1155,90720;0,35800
284,52801;18,96838;1156,02631;0,35844
284,82801;18,98841;1156,51200;0,35889
285,12801;19,00844;1156,77202;0,35935
285,42801;19,02847;1156,02631;0,35980
285,72801;19,04841;1156,10771;0,36024
286,02801;19,06835;1157,06660;0,36069
286,32801;19,08838;1156,36466;0,36113
286,62801;19,10835;1157,11354;0,36158
286,92801;19,12835;1156,97253;0,36203
287,22801;19,14838;1156,39912;0,36247
287,52801;19,16844;1157,41752;0,36292
287,82801;19,18844;1156,90054;0,36337
288,12801;19,20844;1157,23265;0,36381
288,42801;19,22847;1155,87590;0,36426
288,72801;19,24838;1156,67805;0,36471
289,02801;19,26832;1156,99135;0,36514
289,32801;19,28838;1156,41486;0,36559
289,62801;19,30844;1157,05086;0,36604
289,92801;19,32838;1156,60597;0,36649
290,22801;19,34835;1157,85934;0,36693
290,52801;19,36844;1158,61138;0,36738
290,82801;19,38841;1156,55586;0,36783
291,12801;19,40844;1157,44574;0,36828
291,42801;19,42847;1157,38306;0,36873
291,72801;19,44844;1157,10413;0,36917
292,02801;19,46841;1157,90321;0,36962
292,32801;19,48833;1157,58674;0,37006
292,62801;19,50838;1158,37324;0,37051
292,92801;19,52838;1157,96272;0,37096
293,22801;19,54835;1158,43592;0,37141
293,52801;19,56841;1158,41078;0,37185
293,82801;19,58847;1157,58674;0,37229
294,12801;19,60847;1157,82795;0,37274
294,42801;19,62841;1158,88398;0,37320
294,72801;19,64841;1159,56077;0,37364
295,02801;19,66838;1158,78992;0,37408
295,32801;19,68841;1159,57018;0,37453
295,62801;19,70835;1158,58000;0,37498
295,92801;19,72838;1160,03389;0,37543
296,22801;19,74838;1159,88348;0,37588
296,52801;19,76835;1160,35985;0,37633
296,82801;19,78844;1159,63910;0,37677
297,12801;19,80844;1159,35709;0,37722
297,42801;19,82841;1159,60781;0,37766
297,72801;19,84838;1160,47570;0,37811
298,02801;19,86838;1159,53255;0,37856
298,32801;19,88844;1160,45699;0,37900
298,62801;19,90835;1160,15300;0,37944
298,92801;19,92835;1159,87100;0,37989
299,22801;19,94838;1159,65791;0,38034
299,52801;19,96838;1161,25280;0,38078
299,82801;19,98841;1160,45699;0,38123
300,12801;20,00844;1160,66998;0,38167
300,42801;20,02847;1160,41936;0,38212
300,72801;20,04841;1160,35985;0,38257
301,02801;20,06838;1161,50975;0,38301
301,32801;20,08838;1161,24339;0,38346
301,62801;20,10835;1161,20270;0,38390
301,92801;20,12832;1160,78909;0,38435
302,22801;20,14838;1161,24032;0,38480
302,52801;20,16847;1162,31507;0,38524
302,82801;20,18847;1160,94574;0,38569
303,12801;20,20844;1161,09299;0,38613
303,42801;20,22844;1161,92335;0,38657
303,72801;20,24838;1162,67540;0,38701
304,02801;20,26838;1161,77611;0,38746
304,32801;20,28838;1161,19012;0,38790
304,62801;20,30841;1162,48429;0,38835
304,92801;20,32835;1161,83562;0,38879
305,22801;20,34832;1162,91037;0,38923
305,52801;20,36844;1162,25239;0,38968
305,82801;20,38844;1161,43767;0,39012
306,12801;20,40841;1162,24922;0,39056
306,42801;20,42841;1162,72867;0,39101
306,72801;20,44844;1162,46864;0,39145
307,02801;20,46841;1162,62836;0,39190
307,32801;20,48838;1162,72243;0,39234
307,62801;20,50835;1162,65351;0,39278
307,92801;20,52832;1162,95740;0,39323
308,22801;20,54838;1163,60914;0,39367
308,52801;20,56838;1162,79759;0,39412
308,82801;20,58850;1162,63777;0,39456
309,12801;20,60847;1162,23982;0,39500
309,42801;20,62838;1163,72826;0,39545
309,72801;20,64841;1163,52774;0,39588
310,02801;20,66838;1162,98245;0,39633
310,32801;20,68841;1163,80658;0,39677
310,62801;20,70838;1163,87233;0,39721
310,92801;20,72835;1164,04789;0,39767
311,22801;20,74838;1164,39564;0,39811
311,52801;20,76835;1163,93818;0,39855
311,82801;20,78844;1163,53082;0,39900
312,12801;20,80847;1164,42703;0,39944
312,42801;20,82844;1164,11988;0,39988
312,72801;20,84841;1165,07243;0,40033
313,02801;20,86838;1164,55546;0,40077
313,32801;20,88838;1164,08858;0,40122
313,62801;20,90835;1164,78736;0,40166
313,92801;20,92835;1165,24799;0,40210
314,22801;20,94838;1165,73051;0,40254
314,52801;20,96841;1165,37018;0,40298
314,82801;20,98838;1165,11630;0,40343
315,12801;21,00841;1165,17590;0,40387
315,42801;21,02849;1165,62396;0,40432
315,72801;21,04841;1164,91579;0,40476
316,02802;21,06838;1166,43552;0,40520
316,32802;21,08841;1166,59217;0,40564
316,62802;21,10835;1165,89339;0,40609
316,92802;21,12838;1166,30709;0,40653
317,22802;21,14838;1167,10924;0,40697
317,52802;21,16844;1166,77079;0,40741
317,82802;21,18844;1166,29768;0,40786
318,12802;21,20841;1167,19697;0,40830
318,42802;21,22844;1166,37284;0,40875
318,72802;21,24838;1167,00893;0,40919
319,02802;21,26838;1167,20945;0,40963
319,32802;21,28841;1167,20637;0,41008
319,62802;21,30841;1167,02775;0,41051
319,92802;21,32835;1166,88674;0,41096
320,22802;21,34835;1168,38450;0,41140
320,52802;21,36838;1167,35045;0,41184
320,82802;21,38844;1166,59217;0,41229
321,12802;21,40844;1167,30658;0,41273
321,42802;21,42847;1167,13112;0,41317
321,72802;21,44844;1168,25607;0,41362
322,02802;21,46838;1167,57611;0,41405
322,32802;21,48832;1168,28419;0,41449
322,62802;21,50841;1168,04605;0,41494
322,92802;21,52838;1168,06179;0,41538
323,22802;21,54835;1168,34687;0,41582
323,52802;21,56841;1168,50045;0,41627
323,82802;21,58844;1167,51650;0,41670
324,12802;21,60847;1168,69789;0,41715
324,42802;21,62844;1168,91088;0,41759
324,72802;21,64844;1168,06803;0,41803
325,02802;21,66838;1168,76988;0,41846
325,32802;21,68841;1169,23368;0,41890
325,62802;21,70835;1168,34687;0,41934
325,92802;21,72838;1169,44676;0,41978
326,22802;21,74838;1168,96415;0,42022
326,52802;21,76838;1169,77571;0,42066
326,82802;21,78844;1168,42519;0,42110
326,89002;21,79251;656,59271;0,45091