File: 02_Appendices/Appendix_C_Experimental_Data/C_1_Materials_Tests/C_1_1_Tensile_tests/C_1_1_4_Impact Smooth 3D2/Specimen_RawData_5.csv
Text Inputs : Specimen label;"1"
Dimension : Length;50,00000;mm
Dimension : Final length;100,00000;mm
Test : Rate 1;4,00000;mm/min
General : Unique Identifier;"{3D2A4C0C-3144-46BB-A942-5194557997FF}"

Time;Extension;Load;Strain 1
(sec);(mm);(N);(mm/mm)
0,00000;0,00000;8,79924;0,00011
0,30000;0,01675;10,41923;0,00016
0,60000;0,03875;21,12928;0,00045
0,90000;0,05960;28,65889;0,00070
1,20000;0,08003;35,73104;0,00093
1,50000;0,10003;41,72215;0,00115
1,80000;0,12003;48,82875;0,00139
2,10000;0,14006;56,44611;0,00161
2,40000;0,15997;63,05451;0,00183
2,70000;0,18009;69,12395;0,00206
3,00000;0,19991;74,81739;0,00226
3,30000;0,21997;80,81476;0,00246
3,60000;0,23997;85,93164;0,00264
3,90000;0,25991;91,25534;0,00282
4,20000;0,28006;91,91963;0,00290
4,50000;0,30003;92,25804;0,00294
4,80000;0,32006;92,04809;0,00296
5,10000;0,33997;91,55301;0,00298
5,40000;0,35997;92,11390;0,00300
5,70000;0,38003;91,71908;0,00302
6,00000;0,39997;91,92902;0,00304
6,30000;0,41997;92,80011;0,00308
6,60000;0,43994;94,04409;0,00312
6,90000;0,45997;94,36683;0,00314
7,20000;0,48000;94,68331;0,00316
7,50000;0,50000;93,63987;0,00319
7,80000;0,52006;94,73971;0,00322
8,10000;0,54000;96,63856;0,00327
8,40000;0,55997;96,96131;0,00331
8,70000;0,58003;98,65649;0,00336
9,00000;0,60000;99,28318;0,00343
9,30000;0,61997;102,92109;0,00353
9,60000;0,63994;106,23625;0,00363
9,90000;0,65994;109,88042;0,00378
10,20000;0,68003;116,29767;0,00399
10,50000;0,70000;122,13212;0,00420
10,80000;0,72003;128,58697;0,00441
11,10000;0,74008;134,15820;0,00462
11,40000;0,75994;140,03024;0,00483
11,70000;0,78000;145,16906;0,00503
12,00000;0,79997;151,07556;0,00523
12,30000;0,81994;155,53443;0,00543
12,60000;0,83997;161,18087;0,00562
12,90000;0,85991;165,16658;0,00581
13,20000;0,88008;169,65992;0,00598
13,50000;0,90006;173,89944;0,00616
13,80000;0,92003;178,22357;0,00631
14,10000;0,94006;181,42592;0,00644
14,40000;0,95994;184,04861;0,00657
14,70000;0,98003;185,97252;0,00670
15,00000;0,99997;188,98689;0,00683
15,30000;1,02006;192,61852;0,00696
15,60000;1,04000;196,18436;0,00709
15,90000;1,05986;197,97040;0,00722
16,20000;1,08003;201,26051;0,00734
16,50000;1,10003;204,13073;0,00747
16,80000;1,12006;207,08553;0,00759
17,10000;1,14003;209,62674;0,00772
17,40000;1,16000;212,00189;0,00785
17,70000;1,18003;215,48939;0,00798
18,00000;1,19991;217,80813;0,00810
18,30000;1,22000;221,24236;0,00823
18,60000;1,23997;224,67033;0,00835
18,90000;1,25991;226,83865;0,00848
19,20000;1,28006;229,55847;0,00860
19,50000;1,30003;231,44479;0,00872
19,80000;1,32011;234,55315;0,00885
20,10000;1,34000;237,97173;0,00897
20,40000;1,35994;239,55097;0,00908
20,70000;1,38006;241,81018;0,00921
21,00000;1,40000;245,31647;0,00933
21,30000;1,42000;248,22743;0,00946
21,60000;1,43997;251,60839;0,00958
21,90000;1,45994;252,57661;0,00971
22,20000;1,48003;256,21767;0,00983
22,50000;1,50000;259,03147;0,00996
22,80000;1,52006;261,67296;0,01009
23,10000;1,54003;264,78132;0,01021
23,40000;1,55991;267,19719;0,01034
23,70000;1,58003;270,05174;0,01048
24,00000;1,60003;273,60504;0,01062
24,30000;1,61997;276,70399;0,01076
24,60000;1,63994;281,02498;0,01091
24,90000;1,65991;283,35939;0,01106
25,20000;1,68003;286,77483;0,01121
25,50000;1,70003;290,70100;0,01136
25,80000;1,72006;294,01616;0,01153
26,10000;1,74008;298,63485;0,01168
26,40000;1,75997;300,82196;0,01185
26,70000;1,78003;304,33768;0,01201
27,00000;1,80000;308,60540;0,01218
27,30000;1,81997;314,13904;0,01235
27,60000;1,83991;316,60504;0,01252
27,90000;1,85991;320,51243;0,01269
28,20000;1,88008;324,84282;0,01287
28,50000;1,90003;329,72470;0,01304
28,80000;1,92003;332,44137;0,01323
29,10000;1,94003;337,23551;0,01341
29,40000;1,95994;341,03636;0,01359
29,70000;1,98003;345,15054;0,01377
30,00000;1,99997;348,74771;0,01396
30,30000;2,02003;353,66719;0,01415
30,60000;2,03997;358,09160;0,01433
30,90000;2,05985;361,49137;0,01452
31,20000;2,08005;366,00663;0,01471
31,50000;2,10000;369,53799;0,01490
31,80000;2,12003;374,09400;0,01509
32,10000;2,14003;377,95124;0,01528
32,40000;2,16003;381,47634;0,01547
32,70000;2,18008;386,12008;0,01565
33,00000;2,19991;388,95896;0,01584
33,30000;2,21997;393,94423;0,01602
33,60000;2,23997;397,23432;0,01622
33,90000;2,25994;400,99756;0,01640
34,20000;2,28003;405,96090;0,01659
34,50000;2,30003;410,57644;0,01679
34,80000;2,32005;413,58769;0,01698
35,10000;2,33997;417,77394;0,01717
35,40000;2,35997;421,58104;0,01736
35,70000;2,38003;425,92711;0,01756
36,00000;2,39997;429,84076;0,01775
36,30000;2,41997;434,55032;0,01795
36,60000;2,43994;438,24459;0,01815
36,90000;2,45997;442,57184;0,01834
37,20000;2,48003;445,95595;0,01854
37,50000;2,50003;450,31141;0,01874
37,80000;2,52005;453,74879;0,01894
38,10000;2,54003;459,57384;0,01915
38,40000;2,55997;461,97092;0,01934
38,70000;2,58005;466,87783;0,01955
39,00000;2,60000;470,79776;0,01975
39,30000;2,61997;476,07445;0,01996
39,60000;2,63994;479,26428;0,02017
39,90000;2,65994;483,44112;0,02038
40,20000;2,68003;487,98146;0,02060
40,50000;2,70000;492,24608;0,02081
40,80000;2,72005;497,12169;0,02102
41,10000;2,74008;500,45564;0,02123
41,40000;2,75994;505,50047;0,02145
41,70000;2,78003;509,68355;0,02166
42,00000;2,79997;514,46832;0,02188
42,30000;2,81997;518,28795;0,02210
42,60000;2,83997;523,05702;0,02232
42,90000;2,85991;527,36551;0,02255
43,20000;2,88005;531,86822;0,02277
43,50000;2,90005;536,26131;0,02299
43,80000;2,92003;539,43233;0,02321
44,10000;2,94005;545,37328;0,02344
44,40000;2,95997;548,67277;0,02367
44,70000;2,98003;553,22880;0,02389
45,00000;2,99997;558,00728;0,02412
45,30000;3,02002;563,05835;0,02435
45,60000;3,03997;566,92185;0,02458
45,90000;3,05985;570,94833;0,02482
46,20000;3,08005;576,38478;0,02505
46,50000;3,10005;581,18519;0,02529
46,80000;3,12005;584,25595;0,02552
47,10000;3,14003;589,61101;0,02576
47,40000;3,16000;594,42706;0,02599
47,70000;3,18005;598,61331;0,02623
48,00000;3,19991;602,82466;0,02646
48,30000;3,22000;607,27098;0,02670
48,60000;3,23997;612,60723;0,02694
48,90000;3,25991;616,74020;0,02719
49,20000;3,28002;620,49716;0,02744
49,50000;3,30002;625,83964;0,02768
49,80000;3,32011;631,21975;0,02793
50,10000;3,33997;635,41541;0,02818
50,40000;3,35994;638,47364;0,02843
50,70000;3,38002;644,15769;0,02868
51,00000;3,39997;648,24368;0,02893
51,30000;3,41997;653,17880;0,02918
51,60000;3,43997;657,45595;0,02943
51,90000;3,45994;660,89015;0,02968
52,20000;3,48000;666,44573;0,02994
52,50000;3,50002;670,91715;0,03020
52,80000;3,52008;675,15350;0,03045
53,10000;3,54002;680,01659;0,03071
53,40000;3,55991;684,03678;0,03096
53,70000;3,58002;689,07845;0,03122
54,00000;3,60000;693,86321;0,03149
54,30000;3,61997;696,46393;0,03175
54,60000;3,63994;702,13857;0,03200
54,90000;3,65994;706,14624;0,03226
55,20000;3,68002;710,14762;0,03253
55,50000;3,70002;714,73806;0,03280
55,80000;3,72002;720,12129;0,03307
56,10000;3,74005;723,95033;0,03334
56,40000;3,75994;728,20242;0,03361
56,70000;3,78002;732,68949;0,03388
57,00000;3,80000;737,40529;0,03415
57,30000;3,82000;741,67303;0,03443
57,60000;3,83994;746,52354;0,03470
57,90000;3,85988;750,87273;0,03497
58,20000;3,88011;754,99946;0,03526
58,50000;3,90002;759,68080;0,03553
58,80000;3,92002;763,76051;0,03581
59,10000;3,94002;767,80892;0,03608
59,40000;3,95997;771,53142;0,03637
59,70000;3,98002;777,45360;0,03665
60,00000;4,00000;781,25754;0,03693
60,30000;4,02005;784,79834;0,03722
60,60000;4,03997;790,48239;0,03750
60,90000;4,05985;794,09834;0,03778
61,20000;4,08008;797,77073;0,03806
61,50000;4,10002;801,98515;0,03834
61,80000;4,12005;806,01163;0,03863
62,10000;4,14002;810,98750;0,03892
62,40000;4,15999;814,08331;0,03920
62,70000;4,18008;819,20959;0,03949
63,00000;4,19991;823,43658;0,03978
63,30000;4,21997;827,65101;0,04007
63,60000;4,23997;831,41746;0,04035
63,90000;4,25994;834,88300;0,04065
64,20000;4,28005;839,09119;0,04094
64,50000;4,30005;842,89201;0,04124
64,80000;4,32005;847,07830;0,04153
65,10000;4,33999;850,53761;0,04182
65,40000;4,36000;854,46695;0,04212
65,70000;4,38005;859,02289;0,04241
66,00000;4,39997;861,98710;0,04271
66,30000;4,41997;865,26154;0,04301
66,60000;4,43991;870,54763;0,04331
66,90000;4,45997;874,42687;0,04360
67,20000;4,48002;877,67616;0,04390
67,50000;4,49999;880,81900;0,04420
67,80000;4,52005;885,34057;0,04450
68,10000;4,54002;889,46102;0,04480
68,40000;4,55997;892,24037;0,04510
68,70000;4,58005;896,16338;0,04541
69,00000;4,59999;899,49109;0,04570
69,30000;4,61997;903,02872;0,04601
69,60000;4,63994;907,00816;0,04631
69,90000;4,65994;909,49927;0,04662
70,20000;4,68005;913,68556;0,04692
70,50000;4,69999;916,38966;0,04722
70,80000;4,72005;920,00877;0,04753
71,10000;4,74008;923,18291;0,04784
71,40000;4,75997;927,48823;0,04814
71,70000;4,77999;931,23587;0,04845
72,00000;4,79999;933,66737;0,04875
72,30000;4,81997;936,25868;0,04906
72,60000;4,83997;940,30397;0,04938
72,90000;4,85991;943,20867;0,04968
73,20000;4,88008;946,16665;0,04999
73,50000;4,90005;948,59814;0,05030
73,80000;4,92002;952,68097;0,05062
74,10000;4,94008;955,96798;0,05093
74,40000;4,95997;958,48413;0,05124
74,51400;4,96760;960,24508;0,05136
74,81400;4,98749;963,61041;0,05167
75,11400;5,00749;965,47473;0,05198
75,41400;5,02754;968,40141;0,05230
75,71400;5,04746;972,72238;0,05261
76,01400;5,06740;974,92514;0,05293
76,31400;5,08743;976,97442;0,05324
76,61400;5,10740;979,59712;0,05356
76,91400;5,12743;982,69917;0,05388
77,21400;5,14746;986,14916;0,05421
77,51400;5,16754;988,18270;0,05452
77,81400;5,18752;991,03730;0,05484
78,11400;5,20746;993,10530;0,05516
78,41400;5,22754;997,19130;0,05548
78,71400;5,24743;999,86410;0,05581
79,01400;5,26740;1002,06379;0,05613
79,31400;5,28746;1005,12514;0,05645
79,61400;5,30749;1007,36869;0,05678
79,91400;5,32746;1009,65295;0,05710
80,21400;5,34743;1011,75234;0,05742
80,51400;5,36749;1014,59436;0,05775
80,81400;5,38752;1016,95387;0,05808
81,11400;5,40751;1018,96860;0,05840
81,41400;5,42749;1021,92657;0,05873
81,71400;5,44752;1024,90019;0,05905
82,01400;5,46743;1026,91809;0,05938
82,31400;5,48743;1028,16839;0,05971
82,61400;5,50749;1030,99160;0,06004
82,91400;5,52743;1033,11921;0,06037
83,21400;5,54743;1035,30940;0,06070
83,51400;5,56746;1037,17698;0,06103
83,81400;5,58754;1039,76512;0,06136
84,11400;5,60757;1042,15285;0,06169
84,41400;5,62746;1044,59692;0,06202
84,71400;5,64746;1046,27647;0,06236
85,01400;5,66743;1047,67708;0,06269
85,31400;5,68743;1050,32166;0,06302
85,61400;5,70743;1052,21113;0,06336
85,91400;5,72749;1053,65878;0,06370
86,21400;5,74749;1055,64538;0,06404
86,51400;5,76743;1058,32135;0,06438
86,81400;5,78751;1059,75643;0,06472
87,11400;5,80751;1061,81819;0,06506
87,41400;5,82752;1063,76717;0,06540
87,71400;5,84743;1066,12351;0,06573
88,01400;5,86743;1067,56808;0,06608
88,31400;5,88749;1068,89978;0,06642
88,61400;5,90740;1071,27177;0,06676
88,91400;5,92743;1072,77269;0,06710
89,21400;5,94746;1073,81297;0,06744
89,51400;5,96746;1075,71492;0,06779
89,81400;5,98751;1076,99027;0,06813
90,11400;6,00751;1080,14876;0,06848
90,41400;6,02751;1079,91379;0,06883
90,71400;6,04746;1082,16666;0,06917
91,01400;6,06740;1084,13761;0,06952
91,31400;6,08749;1085,64477;0,06987
91,61400;6,10743;1087,64078;0,07022
91,91400;6,12740;1088,02933;0,07056
92,21400;6,14746;1089,71512;0,07092
92,51400;6,16751;1091,11257;0,07126
92,81400;6,18754;1092,00254;0,07161
93,11400;6,20751;1093,77606;0,07196
93,41400;6,22749;1096,01952;0,07232
93,71400;6,24746;1096,89692;0,07266
94,01400;6,26740;1098,19099;0,07302
94,31400;6,28743;1098,75817;0,07337
94,61400;6,30746;1101,16461;0,07373
94,91400;6,32743;1102,41491;0,07409
95,21400;6,34743;1103,17627;0,07444
95,51400;6,36749;1103,97534;0,07480
95,81400;6,38749;1105,28823;0,07515
96,11400;6,40749;1107,07739;0,07551
96,41400;6,42751;1108,74129;0,07587
96,71400;6,44751;1108,30255;0,07622
97,01400;6,46746;1110,37064;0,07658
97,31400;6,48740;1110,52105;0,07694
97,61400;6,50743;1112,35408;0,07730
97,91400;6,52743;1113,27842;0,07766
98,21400;6,54746;1113,68895;0,07802
98,51400;6,56749;1115,22749;0,07838
98,81400;6,58754;1114,96113;0,07874
99,11400;6,60751;1117,41461;0,07910
99,41400;6,62746;1118,53639;0,07947
99,71400;6,64748;1118,73066;0,07983
100,01400;6,66746;1119,49202;0,08019
100,31400;6,68746;1120,39763;0,08055
100,61400;6,70740;1121,91727;0,08092
100,91400;6,72743;1122,47821;0,08128
101,21400;6,74751;1122,63802;0,08165
101,51400;6,76743;1124,21727;0,08201
101,81400;6,78751;1124,10448;0,08237
102,11400;6,80751;1125,60224;0,08274
102,41400;6,82748;1126,46390;0,08311
102,71400;6,84749;1127,70479;0,08348
103,01400;6,86743;1127,33496;0,08384
103,31400;6,88749;1128,06512;0,08422
103,61400;6,90740;1128,96124;0,08458
103,91400;6,92743;1130,06420;0,08496
104,21400;6,94749;1129,84804;0,08533
104,51400;6,96746;1131,35204;0,08570
104,81400;6,98748;1131,93179;0,08607
105,11400;7,00748;1133,82116;0,08644
105,41401;7,02757;1133,12248;0,08682
105,71401;7,04746;1134,07504;0,08719
106,01401;7,06740;1134,89283;0,08756
106,31401;7,08743;1135,35970;0,08793
106,61401;7,10740;1135,77330;0,08831
106,91401;7,12743;1136,97965;0,08869
107,21401;7,14746;1136,34989;0,08907
107,51401;7,16754;1136,64130;0,08944
107,81401;7,18751;1137,51553;0,08981
108,11401;7,20748;1138,94120;0,09019
108,41401;7,22754;1138,84099;0,09057
108,71401;7,24746;1139,95643;0,09095
109,01401;7,26740;1139,03834;0,09133
109,31401;7,28746;1139,60551;0,09171
109,61401;7,30748;1140,96543;0,09209
109,91401;7,32746;1141,20357;0,09247
110,21401;7,34743;1141,66103;0,09285
110,51401;7,36746;1142,41308;0,09323
110,81401;7,38751;1142,63557;0,09361
111,11401;7,40751;1143,40326;0,09399
111,41401;7,42748;1143,51911;0,09438
111,71401;7,44751;1144,09886;0,09476
112,01401;7,46743;1144,46236;0,09514
112,31401;7,48740;1144,56257;0,09552
112,61401;7,50746;1145,52770;0,09590
112,91401;7,52743;1145,87238;0,09629
113,21401;7,54746;1144,78506;0,09667
113,51401;7,56746;1146,44580;0,09706
113,81401;7,58754;1145,90367;0,09744
114,11401;7,60751;1147,43281;0,09782
114,41401;7,62746;1147,35449;0,09821
114,71401;7,64748;1147,32943;0,09859
115,01401;7,66746;1147,27924;0,09898
115,31401;7,68748;1147,94672;0,09937
115,61401;7,70743;1148,61093;0,09975
115,91401;7,72743;1148,40101;0,10014
116,21401;7,74748;1148,02504;0,10053
116,51401;7,76743;1148,80838;0,10092
116,81401;7,78751;1147,76809;0,10130
117,11401;7,80751;1148,91808;0,10169
117,41401;7,82751;1149,36614;0,10207
117,71401;7,84743;1149,58230;0,10246
118,01401;7,86743;1149,32852;0,10285
118,31401;7,88748;1150,15572;0,10324
118,61401;7,90740;1149,79539;0,10363
118,91401;7,92743;1150,54119;0,10402
119,21401;7,94748;1150,03353;0,10441
119,51401;7,96746;1150,91717;0,10480
119,81401;7,98751;1151,44989;0,10520
120,11401;8,00751;1150,82944;0,10558
120,41401;8,02754;1150,50673;0,10597
120,71401;8,04745;1151,50623;0,10637
121,01401;8,06740;1151,04560;0,10676
121,31401;8,08748;1150,99549;0,10715
121,61401;8,10743;1151,39969;0,10754
121,91401;8,12740;1152,01389;0,10793
122,21401;8,14746;1151,75070;0,10832
122,51401;8,16754;1151,63783;0,10872
122,81401;8,18754;1152,24570;0,10911
123,11401;8,20748;1152,74396;0,10951
123,41401;8,22748;1153,42075;0,10990
123,71401;8,24745;1152,03271;0,11029
124,01401;8,26743;1151,75070;0,11069
124,31401;8,28746;1152,88496;0,11108
124,61401;8,30748;1152,80040;0,11148
124,91401;8,32743;1152,84426;0,11187
125,21401;8,34743;1153,32678;0,11227
125,51401;8,36751;1152,55285;0,11267
125,81401;8,38751;1153,03537;0,11306
126,11401;8,40748;1153,66830;0,11346
126,41401;8,42748;1152,60296;0,11385
126,71401;8,44751;1154,01922;0,11425
127,01401;8,46745;1152,74079;0,11465
127,31401;8,48743;1153,33302;0,11504
127,61401;8,50743;1153,07607;0,11544
127,91401;8,52743;1152,89437;0,11584
128,21401;8,54745;1152,70009;0,11624
128,51401;8,56745;1152,54968;0,11664
128,81401;8,58754;1152,84109;0,11704
129,11401;8,60754;1153,09805;0,11744
129,41401;8,62745;1153,90643;0,11784
129,71401;8,64748;1152,87872;0,11823
130,01401;8,66743;1152,98526;0,11863
130,31401;8,68745;1153,34243;0,11903
130,61401;8,70740;1153,53363;0,11943
130,91401;8,72745;1152,77218;0,11984
131,21401;8,74748;1152,45255;0,12024
131,51401;8,76743;1152,85991;0,12063
131,81401;8,78748;1153,24222;0,12104
132,11401;8,80748;1153,17637;0,12144
132,41401;8,82754;1153,10121;0,12184
132,71401;8,84748;1153,63700;0,12224
133,01401;8,86743;1153,11993;0,12264
133,31401;8,88748;1153,64641;0,12304
133,61401;8,90740;1152,96328;0,12344
133,91401;8,92743;1153,07607;0,12385
134,21401;8,94748;1152,74079;0,12425
134,51401;8,96748;1152,53087;0,12465
134,81401;8,98748;1152,52463;0,12506
135,11401;9,00751;1153,12627;0,12546
135,41401;9,02757;1151,84784;0,12586
135,71401;9,04745;1152,67504;0,12626
136,01401;9,06740;1152,29273;0,12667
136,31401;9,08745;1152,66563;0,12707
136,61401;9,10742;1152,89120;0,12748
136,91401;9,12743;1152,53711;0,12788
137,21401;9,14745;1151,58772;0,12828
137,51401;9,16754;1151,65664;0,12868
137,81401;9,18751;1150,90152;0,12909
138,11401;9,20748;1152,18619;0,12949
138,41401;9,22754;1151,66605;0,12990
138,71401;9,24745;1152,72198;0,13031
139,01401;9,26740;1151,29948;0,13070
139,31401;9,28745;1151,44989;0,13111
139,61401;9,30748;1151,78823;0,13152
139,91401;9,32745;1151,29631;0,13193
140,21401;9,34743;1151,38087;0,13234
140,51401;9,36748;1152,08905;0,13274
140,81401;9,38751;1150,35316;0,13314
141,11401;9,40748;1151,85715;0,13355
141,41401;9,42751;1151,34018;0,13396
141,71401;9,44751;1151,83843;0,13436
142,01401;9,46742;1151,05817;0,13477
142,31401;9,48740;1150,40960;0,13517
142,61401;9,50745;1151,53128;0,13558
142,91401;9,52743;1151,20858;0,13599
143,21401;9,54745;1150,90152;0,13640
143,51401;9,56745;1150,76359;0,13681
143,81401;9,58751;1150,05551;0,13721
144,11401;9,60754;1149,91451;0,13762
144,41401;9,62748;1150,40326;0,13803
144,71401;9,64748;1150,69468;0,13844
145,01401;9,66745;1149,90817;0,13884
145,31401;9,68745;1149,90193;0,13925
145,61401;9,70743;1149,74212;0,13966
145,91401;9,72745;1150,30613;0,14008
146,21401;9,74748;1149,82044;0,14048
146,51401;9,76742;1150,57565;0,14089
146,81401;9,78751;1148,84283;0,14130
147,11401;9,80751;1149,32228;0,14171
147,41401;9,82751;1149,67003;0,14212
147,71401;9,84743;1149,73588;0,14253
148,01401;9,86742;1149,82985;0,14294
148,31401;9,88751;1148,15664;0,14335
148,61401;9,90740;1148,98384;0,14376
148,91401;9,92742;1149,91451;0,14418
149,21401;9,94745;1148,46686;0,14459
149,51401;9,96748;1149,32535;0,14500
149,81401;9,98751;1147,86522;0,14541
150,11401;10,00751;1148,61727;0,14582
150,41401;10,02754;1147,80879;0,14624
150,71401;10,04745;1148,29764;0,14664
151,01401;10,06740;1148,38220;0,14705
151,31401;10,08748;1148,41042;0,14746
151,61401;10,10742;1147,65530;0,14787
151,91401;10,12740;1148,38220;0,14828
152,21401;10,14745;1147,99058;0,14870
152,51401;10,16754;1147,69600;0,14911
152,81401;10,18751;1147,11942;0,14952
153,11401;10,20748;1148,04385;0,14993
153,41401;10,22748;1147,72422;0,15035
153,71401;10,24745;1147,78057;0,15076
154,01401;10,26742;1147,67095;0,15117
154,31401;10,28745;1147,43598;0,15158
154,61401;10,30748;1147,62392;0,15200
154,91401;10,32742;1147,89028;0,15241
155,21401;10,34740;1148,08772;0,15282
155,51401;10,36751;1146,04468;0,15324
155,81401;10,38751;1146,11359;0,15365
156,11401;10,40751;1146,95029;0,15406
156,41401;10,42751;1146,13557;0,15447
156,71401;10,44751;1145,95070;0,15489
157,01401;10,46748;1146,38936;0,15530
157,31401;10,48742;1145,43363;0,15571
157,61401;10,50742;1146,43015;0,15612
157,91401;10,52742;1146,11359;0,15654
158,21401;10,54745;1146,31420;0,15696
158,51401;10,56745;1145,74702;0,15737
158,81401;10,58757;1144,99498;0,15778
159,11401;10,60751;1145,18926;0,15820
159,41401;10,62745;1145,32085;0,15861
159,71401;10,64745;1145,32085;0,15902
160,01401;10,66745;1144,58455;0,15943
160,31401;10,68745;1145,49948;0,15985
160,61401;10,70742;1145,29263;0,16026
160,91401;10,72742;1144,61901;0,16068
161,21401;10,74748;1144,60643;0,16110
161,51401;10,76742;1144,93230;0,16151
161,81401;10,78751;1143,68210;0,16192
162,11401;10,80754;1144,46860;0,16234
162,41401;10,82751;1144,59703;0,16276
162,71401;10,84745;1144,85398;0,16317
163,01401;10,86740;1143,58179;0,16359
163,31401;10,88745;1144,08312;0,16400
163,61401;10,90740;1144,64406;0,16442
163,91401;10,92745;1144,75684;0,16484
164,21401;10,94748;1143,96410;0,16525
164,51401;10,96748;1143,45336;0,16567
164,81401;10,98748;1143,49099;0,16609
165,11401;11,00751;1143,90459;0,16651
165,41401;11,02757;1143,28414;0,16693
165,71401;11,04748;1144,03618;0,16734
166,01401;11,06742;1143,19641;0,16775
166,31401;11,08745;1143,48158;0,16817
166,61401;11,10739;1142,66686;0,16859
166,91401;11,12742;1142,72954;0,16902
167,21401;11,14748;1142,72013;0,16943
167,51401;11,16751;1141,83649;0,16985
167,81401;11,18754;1142,09661;0,17027
168,11401;11,20748;1142,92381;0,17068
168,41401;11,22754;1142,44753;0,17111
168,71401;11,24745;1142,29396;0,17152
169,01401;11,26739;1142,30337;0,17193
169,31401;11,28742;1141,80828;0,17235
169,61401;11,30748;1142,57596;0,17277
169,91401;11,32745;1142,52269;0,17319
170,21401;11,34742;1142,01820;0,17362
170,51401;11,36748;1142,10909;0,17403
170,81401;11,38754;1141,24743;0,17446
171,11401;11,40751;1141,56706;0,17487
171,41401;11,42751;1140,92780;0,17530
171,71401;11,44751;1141,04375;0,17571
172,01401;11,46742;1141,29754;0,17614
172,31401;11,48739;1140,50163;0,17655
172,61401;11,50745;1141,75817;0,17698
172,91401;11,52742;1140,80245;0,17740
173,21401;11,54745;1140,84631;0,17781
173,51401;11,56745;1140,62391;0,17823
173,81401;11,58754;1139,85930;0,17865
174,11401;11,60754;1140,44212;0,17907
174,41401;11,62748;1140,31676;0,17949
174,71401;11,64748;1141,27565;0,17990
175,01401;11,66745;1140,13506;0,18032
175,31401;11,68745;1140,23536;0,18074
175,61401;11,70742;1141,08762;0,18117
175,91401;11,72745;1140,89018;0,18159
176,21401;11,74748;1140,16328;0,18201
176,51401;11,76742;1139,26083;0,18242
176,81401;11,78751;1139,42688;0,18284
177,11401;11,80751;1139,59610;0,18327
177,41401;11,82751;1140,20081;0,18369
177,71401;11,84742;1140,54549;0,18410
178,01401;11,86742;1139,06972;0,18453
178,31401;11,88751;1139,10101;0,18495
178,61401;11,90739;1139,57413;0,18537
178,91401;11,92742;1140,23844;0,18579
179,21401;11,94745;1138,57770;0,18621
179,51401;11,96745;1138,87228;0,18663
179,81401;11,98751;1139,06031;0,18705
180,11401;12,00748;1139,60868;0,18748
180,41401;12,02754;1138,84723;0,18790
180,71401;12,04745;1139,35173;0,18831
181,01401;12,06742;1138,01369;0,18873
181,31401;12,08748;1138,45244;0,18915
181,61401;12,10742;1139,18567;0,18958
181,91401;12,12742;1138,82218;0,19000
182,21401;12,14745;1138,43670;0,19042
182,51401;12,16754;1138,69365;0,19085
182,81401;12,18754;1137,68782;0,19126
183,11401;12,20751;1139,24826;0,19169
183,41401;12,22751;1138,98823;0,19211
183,71401;12,24745;1138,41798;0,19253
184,01401;12,26742;1138,33649;0,19296
184,31401;12,28745;1138,33016;0,19338
184,61401;12,30748;1139,00388;0,19380
184,91401;12,32742;1138,26757;0,19423
185,21401;12,34742;1138,96942;0,19465
185,51401;12,36751;1137,88843;0,19507
185,81401;12,38751;1137,61267;0,19549
186,11401;12,40751;1138,84099;0,19591
186,41401;12,42751;1137,81318;0,19634
186,71401;12,44751;1138,17044;0,19677
187,01401;12,46748;1138,24559;0,19719
187,31401;12,48742;1137,86962;0,19761
187,61401;12,50742;1138,31144;0,19803
187,91401;12,52742;1137,92596;0,19846
188,21401;12,54745;1137,43087;0,19889
188,51401;12,56745;1138,12024;0,19931
188,81401;12,58754;1137,37760;0,19973
189,11401;12,60751;1138,13281;0,20015
189,41401;12,62745;1138,18916;0,20058
189,71401;12,64748;1137,62515;0,20100
190,01401;12,66745;1137,46226;0,20143
190,31401;12,68745;1138,45868;0,20185
190,61401;12,70739;1137,75991;0,20227
190,91401;12,72742;1138,04191;0,20270
191,21401;12,74748;1136,65070;0,20312
191,51401;12,76742;1137,07371;0,20355
191,81401;12,78751;1137,13006;0,20397
192,11401;12,80751;1137,55940;0,20439
192,41401;12,82751;1137,05490;0,20481
192,71401;12,84745;1137,91656;0,20524
193,01401;12,86742;1136,97341;0,20566
193,31401;12,88748;1137,96042;0,20608
193,61401;12,90739;1137,38077;0,20651
193,91401;12,92742;1137,64089;0,20693
194,21401;12,94748;1136,85746;0,20736
194,51401;12,96748;1136,82933;0,20778
194,81401;12,98748;1137,54682;0,20820
195,11401;13,00751;1136,92014;0,20863
195,41401;13,02756;1136,87003;0,20905
195,71401;13,04745;1137,06430;0,20947
196,01401;13,06739;1136,62872;0,20990
196,31401;13,08745;1137,49355;0,21032
196,61401;13,10742;1138,09835;0,21075
196,91401;13,12742;1137,53742;0,21118
197,21401;13,14745;1136,57862;0,21160
197,51401;13,16751;1136,03342;0,21202
197,81401;13,18751;1137,01420;0,21245
198,11401;13,20748;1137,19273;0,21287
198,41401;13,22753;1136,55357;0,21330
198,71401;13,24745;1137,24293;0,21372
199,01401;13,26739;1136,45643;0,21414
199,31401;13,28745;1137,02361;0,21457
199,61401;13,30748;1137,92913;0,21500
199,91401;13,32745;1136,92014;0,21543
200,21401;13,34742;1137,07054;0,21585
200,51401;13,36748;1136,70705;0,21628
200,81401;13,38748;1136,67576;0,21670
201,11401;13,40751;1137,64089;0,21713
201,41401;13,42751;1136,54723;0,21755
201,71401;13,44753;1136,31543;0,21798
202,01401;13,46745;1136,73843;0,21840
202,31401;13,48739;1136,42821;0,21883
202,61401;13,50745;1136,63189;0,21925
202,91401;13,52742;1136,90132;0,21968
203,21401;13,54745;1135,76390;0,22011
203,51401;13,56748;1136,25592;0,22053
203,81401;13,58753;1136,36870;0,22096
204,11401;13,60753;1136,25592;0,22139
204,41401;13,62745;1136,83864;0,22181
204,71401;13,64745;1136,56297;0,22224
205,01401;13,66742;1136,41256;0,22266
205,31401;13,68745;1137,11758;0,22309
205,61401;13,70742;1137,00479;0,22352
205,91401;13,72745;1137,26174;0,22395
206,21401;13,74748;1135,61042;0,22438
206,51401;13,76745;1136,84181;0,22480
206,81401;13,78751;1135,20930;0,22523
207,11401;13,80751;1136,78854;0,22567
207,41401;13,82751;1136,29662;0,22609
207,71401;13,84745;1136,72903;0,22652
208,01401;13,86742;1135,43496;0,22695
208,31401;13,88748;1137,42147;0,22738
208,61401;13,90742;1136,12423;0,22780
208,91401;13,92742;1137,51236;0,22823
209,21401;13,94748;1135,83282;0,22866
209,51401;13,96748;1136,10551;0,22908
209,81401;13,98750;1135,78895;0,22951
210,11401;14,00751;1136,73843;0,22994
210,41401;14,02753;1136,12739;0,23037
210,71401;14,04745;1136,22453;0,23079
211,01401;14,06745;1136,08669;0,23122
211,31401;14,08745;1136,60051;0,23164
211,61401;14,10742;1136,33424;0,23207
211,91401;14,12742;1136,52851;0,23250
212,21401;14,14745;1136,67259;0,23292
212,51401;14,16753;1136,02402;0,23335
212,81401;14,18751;1135,70122;0,23378
213,11401;14,20748;1137,25858;0,23421
213,41401;14,22748;1136,82933;0,23464
213,71401;14,24745;1136,29662;0,23507
214,01401;14,26742;1136,55357;0,23549
214,31401;14,28745;1137,04866;0,23592
214,61401;14,30748;1136,34672;0,23636
214,91401;14,32742;1136,09293;0,23678
215,21401;14,34739;1135,98322;0,23721
215,51401;14,36751;1135,85480;0,23764
215,81401;14,38750;1135,18741;0,23807
216,11401;14,40751;1137,16768;0,23850
216,41401;14,42750;1136,15878;0,23893
216,71401;14,44751;1135,63547;0,23936
217,01401;14,46748;1136,50030;0,23979
217,31401;14,48742;1135,53209;0,24021
217,61401;14,50742;1137,20214;0,24065
217,91401;14,52742;1136,82617;0,24109
218,21401;14,54745;1135,71379;0,24151
218,51401;14,56748;1136,60367;0,24194
218,81401;14,58753;1136,70398;0,24237
219,11401;14,60753;1136,02709;0,24280
219,41401;14,62748;1136,11175;0,24323
219,71401;14,64748;1136,57238;0,24366
220,01401;14,66745;1137,34007;0,24409
220,31401;14,68745;1136,36237;0,24452
220,61401;14,70739;1136,58803;0,24495
220,91401;14,72745;1137,24601;0,24538
221,21401;14,74750;1136,17443;0,24581
221,51401;14,76745;1135,76706;0,24624
221,81401;14,78750;1136,14621;0,24666
222,11401;14,80750;1136,44386;0,24710
222,41401;14,82750;1136,53792;0,24753
222,71401;14,84748;1136,75091;0,24796
223,01401;14,86745;1136,37811;0,24839
223,31401;14,88748;1136,37177;0,24883
223,61401;14,90739;1135,74509;0,24926
223,91401;14,92742;1136,91073;0,24969
224,21401;14,94748;1136,04283;0,25012
224,51401;14,96748;1136,02709;0,25056
224,81401;14,98748;1136,71338;0,25099
225,11401;15,00750;1137,17392;0,25142
225,41401;15,02753;1136,98905;0,25185
225,71401;15,04745;1137,17709;0,25228
226,01401;15,06739;1136,50654;0,25271
226,31401;15,08745;1136,74467;0,25314
226,61401;15,10742;1137,03609;0,25357
226,91401;15,12742;1137,23660;0,25400
227,21401;15,14748;1136,95152;0,25443
227,51401;15,16753;1136,08353;0,25487
227,81401;15,18753;1136,05531;0,25530
228,11401;15,20748;1136,28404;0,25572
228,41401;15,22753;1136,20888;0,25616
228,71401;15,24745;1137,16768;0,25658
229,01401;15,26742;1136,73219;0,25701
229,31401;15,28745;1136,93895;0,25744
229,61401;15,30748;1137,00479;0,25788
229,91401;15,32745;1137,31185;0,25831
230,21401;15,34742;1136,92014;0,25873
230,51401;15,36748;1136,74467;0,25917
230,81401;15,38750;1136,43445;0,25960
231,11401;15,40750;1137,87269;0,26003
231,41401;15,42750;1137,17085;0,26046
231,71401;15,44750;1137,37760;0,26089
232,01401;15,46745;1136,92014;0,26132
232,31401;15,48742;1137,25541;0,26175
232,61401;15,50745;1137,70664;0,26219
232,91401;15,52742;1137,26798;0,26262
233,21401;15,54745;1137,36819;0,26305
233,51401;15,56745;1137,47474;0,26348
233,81401;15,58753;1136,94211;0,26391
234,11401;15,60753;1137,13946;0,26434
234,41401;15,62747;1137,74734;0,26477
234,71401;15,64748;1137,10193;0,26520
235,01401;15,66742;1137,56880;0,26563
235,31401;15,68747;1137,34314;0,26607
235,61401;15,70742;1138,08895;0,26650
235,91401;15,72747;1138,28322;0,26693
236,21401;15,74747;1137,06114;0,26736
236,51401;15,76742;1137,50296;0,26779
236,81401;15,78750;1137,01420;0,26823
237,11401;15,80750;1137,51553;0,26866
237,41401;15,82750;1137,63148;0,26909
237,71401;15,84742;1137,86021;0,26952
238,01401;15,86742;1137,59385;0,26995
238,31401;15,88747;1137,81635;0,27038
238,61401;15,90742;1137,65653;0,27082
238,91401;15,92742;1138,38036;0,27125
239,21401;15,94747;1137,28046;0,27168
239,51401;15,96747;1137,86021;0,27212
239,81401;15,98750;1137,28680;0,27255
240,11401;16,00750;1137,79753;0,27299
240,41401;16,02753;1136,98281;0,27342
240,71401;16,04745;1138,44611;0,27385
241,01401;16,06742;1137,49988;0,27428
241,31401;16,08747;1138,71563;0,27472
241,61401;16,10742;1138,23619;0,27515
241,91401;16,12742;1138,36778;0,27558
242,21401;16,14745;1138,31451;0,27602
242,51401;16,16753;1137,61267;0,27646
242,81401;16,18753;1137,69099;0,27689
243,11401;16,20750;1138,10143;0,27732
243,41401;16,22750;1138,19232;0,27776
243,71401;16,24745;1138,80336;0,27818
244,01401;16,26739;1138,30203;0,27861
244,31401;16,28745;1138,35530;0,27905
244,61401;16,30747;1138,96942;0,27949
244,91401;16,32744;1138,28322;0,27992
245,21401;16,34745;1138,19232;0,28035
245,51401;16,36750;1138,97258;0,28078
245,81401;16,38750;1138,09835;0,28122
246,11401;16,40750;1138,65612;0,28165
246,41401;16,42750;1137,50296;0,28209
246,71401;16,44750;1139,02586;0,28251
247,01401;16,46747;1138,74068;0,28295
247,31401;16,48742;1138,15470;0,28338
247,61401;16,50744;1137,95735;0,28381
247,91401;16,52742;1139,04774;0,28425
248,21401;16,54745;1138,80644;0,28468
248,51401;16,56744;1139,16053;0,28511
248,81401;16,58753;1138,06073;0,28554
249,11401;16,60753;1138,15786;0,28598
249,41401;16,62747;1139,16369;0,28641
249,71401;16,64747;1138,69682;0,28684
250,01401;16,66744;1139,19498;0,28727
250,31401;16,68745;1139,27023;0,28771
250,61401;16,70742;1139,27023;0,28814
250,91401;16,72742;1139,66502;0,28858
251,21401;16,74750;1138,80960;0,28901
251,51401;16,76742;1139,11042;0,28944
251,81401;16,78750;1138,44927;0,28988
252,11401;16,80753;1138,26441;0,29031
252,41401;16,82750;1140,00970;0,29075
252,71401;16,84747;1139,59294;0,29118
253,01401;16,86744;1139,53026;0,29161
253,31401;16,88747;1139,19815;0,29205
253,61401;16,90742;1139,50521;0,29248
253,91401;16,92744;1139,35797;0,29293
254,21401;16,94747;1138,62474;0,29336
254,51401;16,96747;1139,92514;0,29379
254,81401;16,98747;1139,91881;0,29423
255,11401;17,00750;1139,29212;0,29467
255,41401;17,02756;1139,50837;0,29510
255,71401;17,04747;1139,78097;0,29553
256,01401;17,06742;1140,41707;0,29596
256,31401;17,08744;1139,97208;0,29640
256,61401;17,10742;1139,75909;0,29683
256,91401;17,12741;1139,74968;0,29728
257,21401;17,14747;1139,47392;0,29771
257,51401;17,16753;1139,42688;0,29815
257,81401;17,18753;1139,08220;0,29858
258,11401;17,20747;1140,49856;0,29901
258,41401;17,22753;1140,33250;0,29945
258,71401;17,24747;1140,62075;0,29989
259,01401;17,26744;1140,94038;0,30032
259,31401;17,28744;1140,21022;0,30076
259,61401;17,30747;1140,93721;0,30120
259,91401;17,32744;1139,77473;0,30164
260,21401;17,34742;1140,14754;0,30207
260,51401;17,36747;1141,06881;0,30250
260,81401;17,38750;1139,50213;0,30294
261,11401;17,40750;1141,12208;0,30338
261,41401;17,42747;1141,48874;0,30382
261,71401;17,44750;1140,52985;0,30425
262,01401;17,46744;1139,76840;0,30468
262,31401;17,48739;1140,27290;0,30512
262,61401;17,50744;1140,90275;0,30556
262,91401;17,52744;1141,06881;0,30600
263,21401;17,54744;1140,50480;0,30642
263,51401;17,56747;1141,24743;0,30686
263,81401;17,58753;1140,31993;0,30729
264,11401;17,60753;1141,05316;0,30772
264,41401;17,62744;1142,18434;0,30815
264,71401;17,64747;1140,72729;0,30859
265,01401;17,66744;1141,36022;0,30903
265,31401;17,68747;1141,64222;0,30947
265,61401;17,70744;1142,44753;0,30990
265,91401;17,72744;1141,28813;0,31034
266,21401;17,74747;1141,24427;0,31078
266,51401;17,76744;1141,82709;0,31121
266,81401;17,78750;1141,49498;0,31165
267,11401;17,80750;1141,16278;0,31208
267,41401;17,82753;1141,59836;0,31251
267,71401;17,84744;1141,69549;0,31295
268,01401;17,86744;1141,32259;0,31339
268,31401;17,88750;1141,88353;0,31382
268,61401;17,90742;1141,69549;0,31425
268,91401;17,92742;1142,11533;0,31469
269,21401;17,94747;1141,81461;0,31512
269,51401;17,96747;1142,61359;0,31556
269,81401;17,98750;1141,60459;0,31599
270,11401;18,00750;1142,67003;0,31643
270,41401;18,02753;1141,66103;0,31686
270,71401;18,04744;1142,42872;0,31730
271,01401;18,06741;1142,34416;0,31774
271,31401;18,08747;1142,73271;0,31817
271,61401;18,10741;1142,08404;0,31860
271,91401;18,12739;1142,24069;0,31904
272,21401;18,14744;1143,02095;0,31948
272,51401;18,16753;1142,39110;0,31991
272,81401;18,18753;1142,41615;0,32034
273,11401;18,20750;1143,72596;0,32078
273,41401;18,22750;1143,45960;0,32122
273,71401;18,24744;1143,73537;0,32165
274,01401;18,26741;1143,40950;0,32208
274,31401;18,28744;1142,58537;0,32253
274,61401;18,30747;1142,98016;0,32296
274,91401;18,32744;1143,43138;0,32340
275,21401;18,34739;1143,34058;0,32383
275,51401;18,36747;1143,92964;0,32427
275,81401;18,38750;1143,15571;0,32471
276,11401;18,40750;1144,13640;0,32514
276,41401;18,42750;1143,57872;0,32558
276,71401;18,44753;1143,78547;0,32601
277,01401;18,46747;1144,83833;0,32645
277,31401;18,48741;1143,85132;0,32689
277,61401;18,50744;1143,59120;0,32733
277,91401;18,52744;1143,83250;0,32776
278,21401;18,54747;1143,44079;0,32820
278,51401;18,56744;1144,67535;0,32864
278,81401;18,58753;1142,93629;0,32907
279,11401;18,60753;1144,44662;0,32951
279,41401;18,62747;1144,52187;0,32995
279,71401;18,64747;1144,60019;0,33039
280,01401;18,66741;1145,56216;0,33081
280,31401;18,68744;1144,52494;0,33125
280,61401;18,70741;1144,75368;0,33169
280,91401;18,72744;1144,95428;0,33213
281,21401;18,74750;1144,03926;0,33256
281,51401;18,76742;1144,44355;0,33299
281,81401;18,78750;1144,78823;0,33344
282,11401;18,80750;1145,52137;0,33387
282,41401;18,82747;1145,25817;0,33431
282,71401;18,84744;1145,30521;0,33475
283,01401;18,86741;1145,68751;0,33519
283,31401;18,88750;1145,91308;0,33562
283,61401;18,90742;1145,21747;0,33605
283,91401;18,92744;1146,01646;0,33649
284,21401;18,94747;1144,45295;0,33692
284,51401;18,96744;1146,37055;0,33736
284,81401;18,98747;1145,82852;0,33780
285,11401;19,00753;1145,75326;0,33823
285,41401;19,02756;1145,56840;0,33868
285,71401;19,04744;1146,31420;0,33912
286,01401;19,06741;1146,27341;0,33955
286,31401;19,08744;1146,37055;0,33998
286,61401;19,10741;1145,49007;0,34042
286,91401;19,12741;1146,59304;0,34086
287,21401;19,14747;1146,21706;0,34129
287,51401;19,16753;1146,40500;0,34172
287,81401;19,18750;1146,74969;0,34216
288,11401;19,20750;1147,45786;0,34260
288,41401;19,22753;1146,08854;0,34303
288,71401;19,24747;1146,76543;0,34347
289,01401;19,26741;1147,84325;0,34390
289,31401;19,28741;1146,45520;0,34433
289,61401;19,30747;1147,24170;0,34477
289,91401;19,32744;1147,12883;0,34521
290,21401;19,34744;1147,18527;0,34565
290,51401;19,36747;1147,60203;0,34608
290,81401;19,38750;1147,52678;0,34652
291,11401;19,40747;1147,57065;0,34696
291,41401;19,42750;1147,21972;0,34739
291,71401;19,44750;1147,86839;0,34783
292,01401;19,46744;1148,41359;0,34826
292,31401;19,48738;1147,05367;0,34869
292,61401;19,50744;1147,91850;0,34914
292,91401;19,52744;1148,88987;0,34958
293,21401;19,54744;1148,36972;0,35002
293,51401;19,56747;1148,70807;0,35045
293,81401;19,58753;1147,88711;0,35088
294,11401;19,60753;1148,20674;0,35133
294,41401;19,62747;1149,02770;0,35177
294,71401;19,64747;1148,97443;0,35220
295,01401;19,66744;1149,24395;0,35263
295,31401;19,68747;1148,86481;0,35307
295,61401;19,70744;1149,10603;0,35351
295,91401;19,72744;1149,80480;0,35395
296,21401;19,74747;1149,19068;0,35439
296,51401;19,76744;1149,49457;0,35482
296,81401;19,78750;1149,52279;0,35526
297,11401;19,80753;1149,01522;0,35570
297,41401;19,82750;1149,00265;0,35614
297,71401;19,84744;1149,24703;0,35657
298,01401;19,86744;1150,24662;0,35701
298,31401;19,88747;1149,57290;0,35745
298,61401;19,90741;1149,68577;0,35789
298,91401;19,92741;1150,11502;0,35833
299,21401;19,94747;1150,02729;0,35877
299,51401;19,96747;1150,24345;0,35920
299,81401;19,98750;1150,03046;0,35964
300,11401;20,00750;1150,91400;0,36008
300,41401;20,02756;1150,36573;0,36052
300,71401;20,04744;1150,87647;0,36094
301,01401;20,06744;1150,96420;0,36138
301,31401;20,08750;1150,71032;0,36182
301,61401;20,10744;1151,58772;0,36225
301,91401;20,12741;1150,74171;0,36269
302,21401;20,14747;1151,69743;0,36314
302,51401;20,16753;1151,21175;0,36357
302,81401;20,18753;1150,66338;0,36401
303,11401;20,20747;1151,53128;0,36444
303,41401;20,22750;1151,81645;0,36488
303,71401;20,24744;1152,11103;0,36532
304,01401;20,26741;1152,33036;0,36575
304,31401;20,28744;1151,43107;0,36619
304,61401;20,30747;1152,09222;0,36662
304,91401;20,32744;1152,21124;0,36706
305,21401;20,34741;1152,64365;0,36749
305,51401;20,36750;1152,94764;0,36793
305,81401;20,38750;1151,72872;0,36836
306,11401;20,40750;1152,58414;0,36880
306,41401;20,42750;1152,31778;0,36924
306,71401;20,44753;1152,37106;0,36967
307,01401;20,46747;1153,54611;0,37011
307,31401;20,48741;1152,22698;0,37054
307,61401;20,50744;1152,32719;0,37098
307,91401;20,52741;1152,94140;0,37142
308,21401;20,54747;1152,88179;0,37186
308,51401;20,56747;1153,89396;0,37229
308,81401;20,58755;1152,69385;0,37273
309,11401;20,60753;1152,83486;0,37317
309,41401;20,62744;1153,68087;0,37360
309,71401;20,64747;1153,53363;0,37404
310,01401;20,66744;1154,00357;0,37448
310,31401;20,68747;1154,04744;0,37491
310,61401;20,70741;1153,71216;0,37535
310,91401;20,72741;1153,70275;0,37579
311,21401;20,74747;1153,86574;0,37622
311,51401;20,76744;1154,67412;0,37665
311,81401;20,78753;1153,94406;0,37709
312,11401;20,80753;1154,04744;0,37753
312,41401;20,82750;1155,11594;0,37797
312,71401;20,84747;1154,62085;0,37840
313,01401;20,86744;1155,55460;0,37884
313,31401;20,88747;1153,49600;0,37927
313,61401;20,90738;1155,25071;0,37971
313,91401;20,92741;1155,03138;0,38015
314,21401;20,94747;1155,02197;0,38059
314,51401;20,96747;1156,09672;0,38102
314,81401;20,98750;1155,21932;0,38146
315,11401;21,00753;1155,21308;0,38189
315,41401;21,02753;1155,34468;0,38233
315,71401;21,04744;1155,49508;0,38276
316,01402;21,06741;1155,96829;0,38320
316,17602;21,07832;634,30616;0,38613