File: 02_Appendices/Appendix_C_Experimental_Data_and_Analysis Reports/C_1_Materials_Tests/C_1_1_Tensile_tests/C_1_1_5_Smooth 3D D20/Specimen_RawData_1.csv
Text Inputs : Specimen label;"1"
Dimension : Length;50,00000;mm
Dimension : Final length;100,00000;mm
Test : Rate 1;4,00000;mm/min
General : Unique Identifier;"{B0461051-27F3-4CCF-AE8F-B477290E5E6C}"

Time;Extension;Load;Strain 1
(sec);(mm);(N);(mm/mm)
0,00000;0,00000;-1,32470;-0,00012
0,10000;0,00402;-1,12730;-0,00013
0,20000;0,01017;-0,19980;-0,00012
0,30000;0,01718;8,49545;-0,00009
0,40000;0,02444;16,78963;-0,00004
0,50000;0,03179;23,98711;0,00001
0,60000;0,03903;30,88692;0,00006
0,70000;0,04604;35,84400;0,00010
0,80000;0,05296;41,66276;0,00014
0,90000;0,05983;45,27248;0,00016
1,00000;0,06655;46,33156;0,00018
1,10000;0,07328;47,08359;0,00020
1,20000;0,07997;49,00751;0,00021
1,30000;0,08664;50,45203;0,00023
1,40000;0,09336;50,33922;0,00024
1,50000;0,10003;51,41085;0,00025
1,60000;0,10670;51,74613;0,00025
1,70000;0,11330;52,39788;0,00026
1,80000;0,11997;53,90192;0,00027
1,90000;0,12664;54,86702;0,00028
2,00000;0,13328;57,24529;0,00029
2,10000;0,14000;55,43417;0,00030
2,20000;0,14667;56,09218;0,00030
2,30000;0,15328;58,20412;0,00031
2,40000;0,15997;58,92167;0,00032
2,50000;0,16667;59,42929;0,00033
2,60000;0,17336;59,78023;0,00033
2,70000;0,18003;60,50091;0,00034
2,80000;0,18672;61,77309;0,00035
2,90000;0,19339;61,13701;0,00035
3,00000;0,20000;62,18044;0,00036
3,10000;0,20669;63,43694;0,00037
3,20000;0,21333;64,57437;0,00038
3,30000;0,21994;65,66794;0,00039
3,40000;0,22664;65,98755;0,00039
3,50000;0,23336;66,51396;0,00040
3,60000;0,24003;67,53859;0,00041
3,70000;0,24664;67,39132;0,00041
3,80000;0,25330;68,69170;0,00041
3,90000;0,25997;69,18678;0,00042
4,00000;0,26658;69,05830;0,00042
4,10000;0,27333;69,24944;0,00042
4,20000;0,28003;69,83540;0,00043
4,30000;0,28669;70,05160;0,00043
4,40000;0,29336;70,26467;0,00043
4,50000;0,30003;71,49611;0,00043
4,60000;0,30669;71,38017;0,00044
4,70000;0,31330;72,11026;0,00044
4,80000;0,32000;73,51717;0,00045
4,90000;0,32672;73,83678;0,00046
5,00000;0,33333;74,05612;0,00046
5,10000;0,34003;75,18415;0,00046
5,20000;0,34669;75,78890;0,00047
5,30000;0,35328;76,82920;0,00048
5,40000;0,35994;78,97873;0,00048
5,50000;0,36664;79,62735;0,00049
5,60000;0,37336;80,34176;0,00049
5,70000;0,38000;80,78672;0,00050
5,80000;0,38669;82,22183;0,00051
5,90000;0,39336;84,38389;0,00052
6,00000;0,40000;86,43941;0,00053
6,10000;0,40667;88,31320;0,00054
6,20000;0,41333;90,75728;0,00056
6,30000;0,41997;94,15391;0,00057
6,40000;0,42667;96,33164;0,00059
6,50000;0,43336;100,42076;0,00061
6,60000;0,44003;104,11193;0,00063
6,70000;0,44664;107,66211;0,00065
6,80000;0,45333;112,33718;0,00068
6,90000;0,46003;116,87125;0,00071
7,00000;0,46669;121,85966;0,00075
7,10000;0,47342;127,09874;0,00078
7,20000;0,48006;132,94258;0,00081
7,30000;0,48664;137,61452;0,00085
7,40000;0,49330;143,39882;0,00088
7,50000;0,49997;148,40291;0,00091
7,60000;0,50664;152,76463;0,00095
7,70000;0,51328;157,90659;0,00098
7,80000;0,51997;163,10494;0,00101
7,90000;0,52667;166,76164;0,00105
8,00000;0,53330;172,38301;0,00108
8,10000;0,54003;178,33653;0,00111
8,20000;0,54669;182,81105;0,00115
8,30000;0,55330;187,93107;0,00118
8,40000;0,56000;193,43963;0,00122
8,50000;0,56672;198,22123;0,00125
8,60000;0,57339;203,07177;0,00129
8,70000;0,58000;208,85295;0,00132
8,80000;0,58669;213,63455;0,00136
8,90000;0,59336;219,04598;0,00140
9,00000;0,59997;224,73629;0,00143
9,10000;0,60669;229,88138;0,00147
9,20000;0,61336;235,06719;0,00151
9,30000;0,61994;240,26867;0,00155
9,40000;0,62664;245,31663;0,00158
9,50000;0,63333;251,85607;0,00162
9,60000;0,64000;256,14260;0,00166
9,70000;0,64661;260,68608;0,00169
9,80000;0,65333;265,68077;0,00173
9,90000;0,66003;271,94447;0,00177
10,00000;0,66669;276,26546;0,00181
10,10000;0,67339;282,11558;0,00184
10,20000;0,68006;287,02251;0,00188
10,30000;0,68667;291,86367;0,00192
10,40000;0,69333;296,74554;0,00196
10,50000;0,70000;301,94703;0,00199
10,60000;0,70669;306,98869;0,00203
10,70000;0,71330;311,11855;0,00207
10,80000;0,71997;316,51431;0,00211
10,90000;0,72664;320,72251;0,00214
11,00000;0,73328;327,96385;0,00218
11,10000;0,74000;332,19398;0,00222
11,20000;0,74669;336,53064;0,00225
11,30000;0,75333;341,31538;0,00229
11,40000;0,76003;346,55761;0,00233
11,50000;0,76672;351,27341;0,00236
11,60000;0,77336;357,08591;0,00240
11,70000;0,78000;362,20907;0,00244
11,80000;0,78669;367,31656;0,00248
11,90000;0,79336;371,85061;0,00252
12,00000;0,79997;377,10224;0,00256
12,10000;0,80669;381,31669;0,00259
12,20000;0,81333;386,84718;0,00263
12,30000;0,81994;392,12387;0,00267
12,40000;0,82664;396,42295;0,00271
12,50000;0,83333;402,18527;0,00274
12,60000;0,84000;406,92617;0,00278
12,70000;0,84667;411,14688;0,00282
12,80000;0,85336;416,77454;0,00286
12,90000;0,86003;421,94468;0,00289
13,00000;0,86664;426,19361;0,00293
13,10000;0,87333;431,00030;0,00297
13,20000;0,88003;435,85082;0,00301
13,30000;0,88664;439,72372;0,00305
13,40000;0,89336;445,59576;0,00309
13,50000;0,90006;451,01973;0,00312
13,60000;0,90669;454,68896;0,00316
13,70000;0,91328;459,86539;0,00320
13,80000;0,91997;464,90394;0,00324
13,90000;0,92664;468,42592;0,00328
14,00000;0,93328;473,76212;0,00331
14,10000;0,94000;478,66907;0,00335
14,20000;0,94669;483,61048;0,00339
14,30000;0,95333;487,47086;0,00343
14,40000;0,96000;493,02331;0,00346
14,50000;0,96672;497,87699;0,00350
14,60000;0,97336;501,63083;0,00354
14,70000;0,97997;505,77633;0,00358
14,80000;0,98669;510,45767;0,00361
14,90000;0,99336;514,72541;0,00365
15,00000;1,00000;519,99269;0,00369
15,10000;1,00664;523,86876;0,00372
15,20000;1,01333;528,48114;0,00376
15,30000;1,01994;532,46687;0,00380
15,40000;1,02661;536,86933;0,00383
15,50000;1,03336;541,46918;0,00386
15,60000;1,04006;544,81882;0,00390
15,70000;1,04669;548,22802;0,00393
15,80000;1,05336;552,37664;0,00396
15,90000;1,06000;556,44698;0,00400
16,00000;1,06661;559,90000;0,00403
16,10000;1,07333;563,69146;0,00406
16,20000;1,08003;569,01514;0,00409
16,30000;1,08667;572,15798;0,00413
16,40000;1,09336;575,24438;0,00416
16,50000;1,10003;578,77577;0,00419
16,60000;1,10669;583,21268;0,00422
16,70000;1,11330;586,90389;0,00425
16,80000;1,12000;590,75174;0,00428
16,90000;1,12667;594,47736;0,00432
17,00000;1,13330;598,25629;0,00435
17,10000;1,14003;601,80333;0,00438
17,20000;1,14669;605,31902;0,00441
17,30000;1,15330;609,00077;0,00444
17,40000;1,15997;613,60067;0,00447
17,50000;1,16667;617,18216;0,00451
17,60000;1,17333;620,95481;0,00454
17,70000;1,18000;623,74356;0,00457
17,80000;1,18669;627,91416;0,00460
17,90000;1,19336;631,23559;0,00463
18,00000;1,19997;635,93886;0,00466
18,10000;1,20667;638,95946;0,00470
18,20000;1,21333;642,14305;0,00473
18,30000;1,21994;646,49223;0,00476
18,40000;1,22667;649,89827;0,00479
18,50000;1,23339;653,03170;0,00482
18,60000;1,24006;656,87639;0,00485
18,70000;1,24669;660,28871;0,00488
18,80000;1,25336;664,19919;0,00491
18,90000;1,26003;668,10972;0,00495
19,00000;1,26664;670,98308;0,00497
19,10000;1,27336;674,96253;0,00500
19,20000;1,28003;678,36228;0,00504
19,30000;1,28664;681,43304;0,00507
19,40000;1,29330;685,66003;0,00510
19,50000;1,30000;689,81182;0,00513
19,60000;1,30667;692,65696;0,00516
19,70000;1,31327;695,76222;0,00520
19,80000;1,32000;699,63513;0,00522
19,90000;1,32669;703,03488;0,00526
20,00000;1,33333;706,63835;0,00529
20,10000;1,34003;710,73999;0,00532
20,20000;1,34669;713,96427;0,00535
20,30000;1,35330;717,32644;0,00538
20,40000;1,35997;721,13043;0,00541
20,50000;1,36669;723,88472;0,00544
20,60000;1,37336;727,35655;0,00547
20,70000;1,38000;731,03830;0,00550
20,80000;1,38669;733,65159;0,00553
20,90000;1,39336;738,06345;0,00557
21,00000;1,40000;741,05901;0,00559
21,10000;1,40667;744,07025;0,00562
21,20000;1,41333;747,35722;0,00565
21,30000;1,41994;750,86975;0,00568
21,40000;1,42666;754,02199;0,00571
21,50000;1,43336;757,31208;0,00574
21,60000;1,44003;761,04398;0,00577
21,70000;1,44664;763,71366;0,00580
21,80000;1,45333;766,84086;0,00583
21,90000;1,46000;770,91116;0,00586
22,00000;1,46667;774,04771;0,00589
22,10000;1,47339;777,13416;0,00592
22,20000;1,48003;781,32981;0,00595
22,30000;1,48666;784,02143;0,00598
22,40000;1,49333;786,87910;0,00601
22,50000;1,50000;790,67051;0,00604
22,60000;1,50666;793,12716;0,00607
22,70000;1,51330;796,61459;0,00609
22,80000;1,52000;800,42798;0,00613
22,90000;1,52669;803,14158;0,00615
23,00000;1,53330;806,46928;0,00618
23,10000;1,54003;810,42675;0,00621
23,20000;1,54669;812,57317;0,00624
23,30000;1,55330;815,47154;0,00627
23,40000;1,55997;819,13769;0,00630
23,50000;1,56666;821,09608;0,00633
23,60000;1,57333;824,39557;0,00635
23,70000;1,57997;827,87992;0,00638
23,80000;1,58669;830,51203;0,00641
23,90000;1,59336;833,89925;0,00644
24,00000;1,59997;836,53443;0,00646
24,10000;1,60672;839,80579;0,00649
24,20000;1,61339;842,72614;0,00652
24,30000;1,62000;845,99741;0,00655
24,40000;1,62669;848,63892;0,00658
24,50000;1,63336;851,73156;0,00660
24,60000;1,64003;854,71142;0,00663
24,70000;1,64664;857,13044;0,00666
24,80000;1,65333;859,71551;0,00669
24,90000;1,66003;863,83596;0,00672
25,00000;1,66664;866,31142;0,00675
25,10000;1,67333;869,40406;0,00677
25,20000;1,68003;872,06438;0,00680
25,30000;1,68664;875,46101;0,00683
25,40000;1,69330;878,65088;0,00685
25,50000;1,70000;881,36438;0,00688
25,60000;1,70669;884,36622;0,00691
25,70000;1,71333;887,36489;0,00694
25,80000;1,72000;890,36357;0,00696
25,90000;1,72669;893,44056;0,00699
26,00000;1,73333;895,72491;0,00702
26,10000;1,74003;899,30324;0,00705
26,20000;1,74669;902,74690;0,00708
26,30000;1,75333;904,15692;0,00711
26,40000;1,76003;907,90447;0,00713
26,50000;1,76669;910,84056;0,00716
26,60000;1,77336;913,46009;0,00719
26,70000;1,77997;917,61500;0,00722
26,80000;1,78666;920,06223;0,00724
26,90000;1,79330;922,68176;0,00727
27,00000;1,79994;925,86847;0,00730
27,10000;1,80666;927,82993;0,00733
27,20000;1,81333;931,83443;0,00736
27,30000;1,81994;934,70784;0,00739
27,40000;1,82664;937,53729;0,00741
27,50000;1,83336;940,21326;0,00744
27,60000;1,84003;943,23391;0,00747
27,70000;1,84666;945,21735;0,00750
27,80000;1,85336;949,07461;0,00753
27,90000;1,86003;952,28944;0,00755
28,00000;1,86664;954,84322;0,00758
28,10000;1,87336;957,35313;0,00761
28,20000;1,88003;961,12257;0,00764
28,30000;1,88664;963,26275;0,00767
28,40000;1,89336;967,08555;0,00769
28,50000;1,90005;969,90243;0,00772
28,60000;1,90669;971,65089;0,00775
28,70000;1,91330;974,96295;0,00778
28,80000;1,91997;978,05252;0,00780
28,90000;1,92664;980,92901;0,00783
29,00000;1,93327;983,77727;0,00786
29,10000;1,94000;987,07676;0,00789
29,20000;1,94669;990,20703;0,00792
29,30000;1,95330;992,47256;0,00795
29,40000;1,96000;995,62788;0,00797
29,50000;1,96669;998,37594;0,00800
29,60000;1,97336;1001,98248;0,00803
29,70000;1,97997;1004,01919;0,00806
29,80000;1,98669;1007,18085;0,00809
29,90000;1,99339;1009,90999;0,00811
30,00000;2,00003;1013,27216;0,00814
30,10000;2,00669;1015,27134;0,00817
30,20000;2,01333;1019,36040;0,00820
30,30000;2,01994;1022,05835;0,00822
30,40000;2,02664;1024,23606;0,00825
30,50000;2,03336;1027,23790;0,00828
30,60000;2,04005;1030,41520;0,00831
30,70000;2,04666;1032,49261;0,00834
30,80000;2,05333;1035,79527;0,00837
30,90000;2,06000;1038,52451;0,00840
31,00000;2,06661;1041,58269;0,00842
31,10000;2,07330;1045,25825;0,00845
31,20000;2,08000;1048,30703;0,00848
31,30000;2,08666;1050,66961;0,00851
31,40000;2,09336;1053,77175;0,00854
31,50000;2,10005;1056,40693;0,00857
31,60000;2,10669;1058,81337;0,00860
31,70000;2,11330;1061,91551;0,00862
31,80000;2,11997;1064,81081;0,00865
31,90000;2,12664;1067,45539;0,00868
32,00000;2,13330;1070,25979;0,00871
32,10000;2,14003;1073,70345;0,00874
32,20000;2,14669;1076,53290;0,00877
32,30000;2,15330;1078,82973;0,00880
32,40000;2,15997;1081,91306;0,00882
32,50000;2,16666;1084,47932;0,00885
32,60000;2,17333;1088,09844;0,00888
32,70000;2,18000;1090,75559;0,00891
32,80000;2,18672;1092,54783;0,00894
32,90000;2,19339;1096,09803;0,00897
33,00000;2,20000;1099,26593;0,00899
33,10000;2,20666;1102,02339;0,00902
33,20000;2,21336;1104,87472;0,00905
33,30000;2,21994;1107,00550;0,00908
33,40000;2,22664;1110,00417;0,00910
33,50000;2,23336;1113,44783;0,00913
33,60000;2,24003;1116,55304;0,00916
33,70000;2,24664;1118,42994;0,00919
33,80000;2,25333;1121,80151;0,00922
33,90000;2,26000;1125,18873;0,00925
34,00000;2,26661;1127,16286;0,00928
34,10000;2,27333;1130,43413;0,00931
34,20000;2,28003;1134,17227;0,00934
34,30000;2,28666;1135,20948;0,00937
34,40000;2,29336;1138,66245;0,00939
34,50000;2,30003;1141,08464;0,00942
34,60000;2,30666;1145,05468;0,00945
34,70000;2,31330;1147,40161;0,00948
34,80000;2,32000;1150,36275;0,00950
34,90000;2,32672;1152,87257;0,00954
35,00000;2,33333;1155,74282;0,00956
35,10000;2,34003;1158,92636;0,00959
35,20000;2,34669;1161,32973;0,00962
35,30000;2,35327;1164,09026;0,00965
35,40000;2,35994;1166,87585;0,00968
35,50000;2,36666;1169,97166;0,00971
35,60000;2,37336;1172,56613;0,00974
35,70000;2,38003;1175,61184;0,00977
35,80000;2,38669;1178,52278;0,00979
35,90000;2,39339;1181,49333;0,00982
36,00000;2,40000;1184,57973;0,00985
36,10000;2,40666;1186,92666;0,00988
36,20000;2,41333;1190,21051;0,00991
36,30000;2,41994;1192,22524;0,00994
36,40000;2,42664;1195,09865;0,00997
36,50000;2,43333;1198,54230;0,01000
36,60000;2,44003;1202,28985;0,01003
36,70000;2,44664;1203,88158;0,01006
36,80000;2,45333;1206,51368;0,01009
36,90000;2,46003;1210,74067;0,01012
37,00000;2,46669;1213,16593;0,01014
37,10000;2,47339;1216,24926;0,01017
37,20000;2,48005;1218,56174;0,01020
37,30000;2,48666;1221,25018;0,01023
37,40000;2,49333;1223,96378;0,01026
37,50000;2,50000;1227,05325;0,01029
37,60000;2,50666;1230,06450;0,01032
37,70000;2,51330;1232,49292;0,01035
37,80000;2,51997;1235,27227;0,01038
37,90000;2,52664;1238,35560;0,01041
38,00000;2,53327;1240,34211;0,01043
38,10000;2,54000;1244,97022;0,01047
38,20000;2,54669;1246,86286;0,01049
38,30000;2,55327;1250,10591;0,01052
38,40000;2,56000;1252,70355;0,01055
38,50000;2,56672;1255,34814;0,01058
38,60000;2,57339;1259,13015;0,01061
38,70000;2,58000;1261,32360;0,01064
38,80000;2,58669;1264,19067;0,01067
38,90000;2,59336;1267,17677;0,01070
39,00000;2,59997;1270,64548;0,01073
39,10000;2,60669;1273,46562;0,01076
39,20000;2,61339;1274,80356;0,01079
39,30000;2,61997;1277,95897;0,01082
39,40000;2,62666;1280,80091;0,01085
39,50000;2,63336;1284,35111;0,01088
39,60000;2,64003;1287,29651;0,01091
39,70000;2,64663;1289,69671;0,01094
39,80000;2,65333;1292,83015;0,01097
39,90000;2,66000;1296,12340;0,01100
40,00000;2,66666;1298,30111;0,01103
40,10000;2,67333;1301,63198;0,01106
40,20000;2,68003;1304,86879;0,01109
40,30000;2,68664;1306,87729;0,01112
40,40000;2,69333;1310,33352;0,01115
40,50000;2,70003;1312,81829;0,01118
40,60000;2,70669;1315,37514;0,01121
40,70000;2,71333;1318,45223;0,01124
40,80000;2,72000;1320,89630;0,01127
40,90000;2,72666;1323,67872;0,01130
41,00000;2,73330;1326,75888;0,01133
41,10000;2,74000;1329,45366;0,01136
41,20000;2,74669;1332,15468;0,01139
41,30000;2,75333;1334,73035;0,01142
41,40000;2,76003;1338,42463;0,01145
41,50000;2,76672;1340,20438;0,01148
41,60000;2,77336;1343,54467;0,01151
41,70000;2,77997;1346,34590;0,01154
41,80000;2,78666;1349,16920;0,01157
41,90000;2,79330;1352,40285;0,01160
42,00000;2,79994;1355,27616;0,01163
42,10000;2,80666;1357,68894;0,01166
42,20000;2,81333;1360,03904;0,01169
42,30000;2,81994;1363,68945;0,01172
42,40000;2,82666;1365,77943;0,01175
42,50000;2,83336;1368,94109;0,01178
42,60000;2,84003;1371,77994;0,01181
42,70000;2,84666;1374,44334;0,01184
42,80000;2,85336;1377,15070;0,01187
42,90000;2,86005;1381,01419;0,01190
43,00000;2,86666;1383,04466;0,01193
43,10000;2,87336;1386,01195;0,01196
43,20000;2,88003;1388,61900;0,01200
43,30000;2,88664;1391,03485;0,01203
43,40000;2,89336;1394,19017;0,01206
43,50000;2,90005;1396,96021;0,01209
43,60000;2,90669;1400,12493;0,01212
43,70000;2,91330;1401,97678;0,01215
43,80000;2,91997;1405,57084;0,01218
43,90000;2,92663;1408,98312;0,01221
44,00000;2,93327;1410,89763;0,01224
44,10000;2,94000;1414,59508;0,01227
44,20000;2,94669;1416,92013;0,01230
44,30000;2,95330;1419,37360;0,01233
44,40000;2,96000;1422,61041;0,01236
44,50000;2,96669;1425,60285;0,01239
44,60000;2,97336;1428,41665;0,01243
44,70000;2,97997;1431,40592;0,01246
44,80000;2,98666;1434,02228;0,01249
44,90000;2,99336;1437,58189;0,01252
45,00000;2,99994;1439,94140;0,01255
45,10000;3,00663;1442,19119;0,01258
45,20000;3,01333;1445,79774;0,01261
45,30000;3,01994;1448,33578;0,01264
45,40000;3,02663;1450,74539;0,01267
45,50000;3,03339;1453,31165;0,01270
45,60000;3,04008;1456,52033;0,01274
45,70000;3,04672;1459,36543;0,01277
45,80000;3,05336;1461,50878;0,01280
45,90000;3,06005;1464,70796;0,01283
46,00000;3,06666;1467,82883;0,01286
46,10000;3,07336;1470,58936;0,01289
46,20000;3,08002;1473,65080;0,01292
46,30000;3,08663;1475,75960;0,01296
46,40000;3,09333;1479,61993;0,01299
46,50000;3,10002;1481,95121;0,01302
46,60000;3,10669;1485,24754;0,01305
46,70000;3,11327;1487,65091;0,01308
46,80000;3,11997;1489,76594;0,01311
46,90000;3,12663;1493,07484;0,01314
47,00000;3,13330;1495,27453;0,01318
47,10000;3,14003;1499,03148;0,01321
47,20000;3,14669;1501,33455;0,01324
47,30000;3,15330;1504,08885;0,01327
47,40000;3,16000;1506,46400;0,01330
47,50000;3,16669;1509,63506;0,01334
47,60000;3,17336;1512,20439;0,01337
47,70000;3,18002;1515,57913;0,01340
47,80000;3,18672;1517,83833;0,01343
47,90000;3,19339;1521,37596;0,01347
48,00000;3,20000;1524,52504;0,01350
48,10000;3,20666;1527,45172;0,01353
48,20000;3,21333;1529,54794;0,01356
48,30000;3,21991;1532,02647;0,01359
48,40000;3,22663;1534,88731;0,01362
48,50000;3,23336;1538,01758;0,01366
48,60000;3,24002;1541,33271;0,01369
48,70000;3,24663;1543,49171;0,01372
48,80000;3,25333;1546,05480;0,01375
48,90000;3,26000;1549,60817;0,01379
49,00000;3,26661;1552,08036;0,01382
49,10000;3,27333;1554,92239;0,01385
49,20000;3,28002;1557,14089;0,01389
49,30000;3,28663;1560,08629;0,01392
49,40000;3,29333;1563,42648;0,01395
49,50000;3,30002;1566,09938;0,01398
49,60000;3,30669;1568,68119;0,01402
49,70000;3,31330;1571,09406;0,01405
49,80000;3,32000;1574,36207;0,01408
49,90000;3,32672;1576,81871;0,01411
50,00000;3,33336;1579,27852;0,01415
50,10000;3,34005;1583,11073;0,01418
50,20000;3,34669;1584,57085;0,01421
50,30000;3,35327;1588,38741;0,01424
50,40000;3,35994;1591,06646;0,01427
50,50000;3,36663;1593,32883;0,01431
50,60000;3,37333;1596,80378;0,01434
50,70000;3,37997;1599,26340;0,01438
50,80000;3,38666;1602,56606;0,01441
50,90000;3,39339;1605,73721;0,01444
51,00000;3,40000;1608,09346;0,01448
51,10000;3,40669;1610,20849;0,01451
51,20000;3,41336;1613,27925;0,01454
51,30000;3,41997;1616,66330;0,01457
51,40000;3,42669;1619,35184;0,01461
51,50000;3,43339;1622,05920;0,01464
51,60000;3,44005;1625,24264;0,01467
51,70000;3,44666;1626,87842;0,01471
51,80000;3,45333;1630,42545;0,01474
51,90000;3,46000;1633,26431;0,01477
52,00000;3,46666;1636,22219;0,01481
52,10000;3,47339;1638,66319;0,01484
52,20000;3,48002;1641,79038;0,01488
52,30000;3,48663;1644,52903;0,01491
52,40000;3,49330;1646,88844;0,01494
52,50000;3,49997;1650,10653;0,01498
52,60000;3,50663;1653,56882;0,01501
52,70000;3,51330;1655,48027;0,01505
52,80000;3,52000;1658,20010;0,01508
52,90000;3,52669;1661,51524;0,01511
53,00000;3,53336;1663,62096;0,01515
53,10000;3,54005;1667,01432;0,01518
53,20000;3,54669;1668,33363;0,01521
53,30000;3,55330;1672,25040;0,01524
53,40000;3,56000;1675,42771;0,01528
53,50000;3,56669;1677,12588;0,01532
53,60000;3,57336;1681,30901;0,01535
53,70000;3,57997;1683,14520;0,01538
53,80000;3,58669;1686,43855;0,01542
53,90000;3,59336;1688,45337;0,01545
54,00000;3,59994;1691,53344;0,01548
54,10000;3,60666;1695,17770;0,01552
54,20000;3,61336;1697,18936;0,01555
54,30000;3,61997;1699,95613;0,01559
54,40000;3,62666;1702,22167;0,01562
54,50000;3,63336;1705,69029;0,01566
54,60000;3,64002;1708,20337;0,01569
54,70000;3,64663;1710,33405;0,01572
54,80000;3,65333;1712,69663;0,01576
54,90000;3,66005;1715,90522;0,01579
55,00000;3,66666;1718,91954;0,01583
55,10000;3,67336;1721,77423;0,01586
55,20000;3,68005;1723,80768;0,01590
55,30000;3,68666;1726,75624;0,01593
55,40000;3,69333;1728,89959;0,01596
55,50000;3,70000;1732,40267;0,01600
55,60000;3,70669;1734,06657;0,01603
55,70000;3,71330;1737,74213;0,01607
55,80000;3,72000;1740,39304;0,01610
55,90000;3,72666;1742,96554;0,01614
56,00000;3,73327;1745,24970;0,01617
56,10000;3,74000;1747,83487;0,01620
56,20000;3,74669;1750,50143;0,01624
56,30000;3,75330;1754,17066;0,01627
56,40000;3,76000;1756,50194;0,01631
56,50000;3,76669;1758,60450;0,01635
56,60000;3,77336;1762,19847;0,01638
56,70000;3,78000;1764,65828;0,01642
56,80000;3,78669;1767,10859;0,01645
56,90000;3,79336;1769,72505;0,01649
57,00000;3,80000;1772,75501;0,01652
57,10000;3,80672;1774,49100;0,01656
57,20000;3,81336;1777,35165;0,01659
57,30000;3,81997;1780,48201;0,01663
57,40000;3,82666;1783,02638;0,01666
57,50000;3,83336;1786,37914;0,01670
57,60000;3,84002;1788,82312;0,01673
57,70000;3,84663;1790,47771;0,01676
57,80000;3,85333;1793,80849;0,01680
57,90000;3,86000;1797,23967;0,01684
58,00000;3,86661;1798,91288;0,01687
58,10000;3,87330;1801,76105;0,01691
58,20000;3,88002;1804,22403;0,01694
58,30000;3,88663;1807,06289;0,01698
58,40000;3,89336;1810,10533;0,01701
58,50000;3,90008;1812,10451;0,01705
58,60000;3,90672;1815,56065;0,01709
58,70000;3,91333;1818,10819;0,01712
58,80000;3,92000;1820,08855;0,01715
58,90000;3,92666;1822,51371;0,01719
59,00000;3,93330;1825,36524;0,01723
59,10000;3,94002;1828,99367;0,01726
59,20000;3,94669;1831,24356;0,01730
59,30000;3,95330;1834,08242;0,01733
59,40000;3,95997;1836,52639;0,01737
59,50000;3,96669;1839,08027;0,01740
59,60000;3,97333;1843,04081;0,01744
59,70000;3,97994;1844,27537;0,01748
59,80000;3,98666;1846,49080;0,01751
59,90000;3,99336;1849,73069;0,01755
60,00000;4,00002;1852,36596;0,01759
60,10000;4,00669;1855,45553;0,01762
60,20000;4,01336;1857,00022;0,01766
60,30000;4,01997;1860,42506;0,01770
60,40000;4,02663;1862,68110;0,01773
60,50000;4,03339;1865,36647;0,01777
60,60000;4,04005;1869,08282;0,01781
60,70000;4,04669;1870,55860;0,01784
60,80000;4,05336;1873,54796;0,01788
60,90000;4,06002;1875,24613;0,01791
61,00000;4,06663;1878,53314;0,01795
61,10000;4,07333;1880,86126;0,01799
61,20000;4,08000;1883,06402;0,01802
61,30000;4,08663;1885,84346;0,01806
61,40000;4,09336;1888,84530;0,01810
61,50000;4,10002;1891,16392;0,01813
61,60000;4,10669;1894,03743;0,01817
61,70000;4,11330;1895,84848;0,01820
61,80000;4,11997;1899,46759;0,01824
61,90000;4,12666;1901,67986;0,01827
62,00000;4,13330;1904,40901;0,01831
62,10000;4,14002;1908,19725;0,01835
62,20000;4,14669;1909,34408;0,01839
62,30000;4,15330;1912,21125;0,01842
62,40000;4,15999;1914,47977;0,01846
62,50000;4,16669;1916,62628;0,01850
62,60000;4,17336;1920,18896;0,01853
62,70000;4,18002;1921,56453;0,01857
62,80000;4,18672;1923,85502;0,01861
62,90000;4,19339;1926,66575;0,01865
63,00000;4,20000;1929,15983;0,01868
63,10000;4,20666;1932,12107;0,01872
63,20000;4,21333;1934,69357;0,01875
63,30000;4,21991;1937,01535;0,01879
63,40000;4,22663;1938,57271;0,01882
63,50000;4,23336;1941,70922;0,01886
63,60000;4,24002;1944,69541;0,01889
63,70000;4,24663;1946,12425;0,01893
63,80000;4,25333;1949,06965;0,01897
63,90000;4,26002;1951,88988;0,01900
64,00000;4,26660;1953,82945;0,01904
64,10000;4,27336;1956,51166;0,01908
64,20000;4,28005;1959,02139;0,01912
64,30000;4,28666;1960,95798;0,01916
64,40000;4,29333;1963,32373;0,01919
64,50000;4,30002;1966,44776;0,01923
64,60000;4,30669;1970,17025;0,01927
64,70000;4,31330;1970,90022;0,01931
64,80000;4,31997;1974,03990;0,01934
64,90000;4,32669;1975,73211;0,01938
65,00000;4,33330;1978,33274;0,01942
65,10000;4,34002;1980,96167;0,01946
65,20000;4,34669;1983,75992;0,01949
65,30000;4,35330;1986,84949;0,01953
65,40000;4,35997;1988,04326;0,01957
65,50000;4,36669;1990,45278;0,01961
65,60000;4,37339;1993,23855;0,01965
65,70000;4,38002;1995,03396;0,01968
65,80000;4,38672;1997,47793;0,01972
65,90000;4,39339;2000,04745;0,01976
66,00000;4,39999;2003,38457;0,01980
66,10000;4,40666;2005,37741;0,01984
66,20000;4,41333;2007,59899;0,01987
66,30000;4,41994;2009,91146;0,01991
66,40000;4,42663;2012,09225;0,01995
66,50000;4,43333;2014,74000;0,01999
66,60000;4,43999;2017,20912;0,02003
66,70000;4,44663;2018,99521;0,02006
66,80000;4,45330;2021,66494;0,02010
66,90000;4,45999;2024,66678;0,02014
67,00000;4,46666;2026,51862;0,02018
67,10000;4,47339;2029,07231;0,02022
67,20000;4,48008;2031,66679;0,02026
67,30000;4,48669;2033,92915;0,02030
67,40000;4,49336;2036,08815;0,02033
67,50000;4,50002;2038,36299;0,02037
67,60000;4,50669;2040,50615;0,02041
67,70000;4,51330;2042,55544;0,02045
67,80000;4,51999;2045,43509;0,02049
67,90000;4,52666;2047,53447;0,02052
68,00000;4,53330;2050,11014;0,02056
68,10000;4,54002;2052,56362;0,02060
68,20000;4,54669;2055,12997;0,02064
68,30000;4,55327;2057,08519;0,02068
68,40000;4,55997;2059,42579;0,02072
68,50000;4,56666;2061,45309;0,02076
68,60000;4,57336;2064,98764;0,02080
68,70000;4,58002;2066,54184;0,02083
68,80000;4,58669;2068,59745;0,02088
68,90000;4,59338;2070,94736;0,02091
69,00000;4,59999;2073,80503;0,02095
69,10000;4,60672;2076,45278;0,02099
69,20000;4,61339;2078,06341;0,02103
69,30000;4,61997;2081,07773;0,02107
69,40000;4,62666;2082,29050;0,02110
69,50000;4,63336;2085,21709;0,02115
69,60000;4,64002;2088,20943;0,02119
69,70000;4,64663;2089,71351;0,02122
69,80000;4,65333;2092,15451;0,02126
69,90000;4,66002;2094,20063;0,02130
70,00000;4,66666;2096,89215;0,02134
70,10000;4,67336;2099,14520;0,02138
70,20000;4,68002;2101,33847;0,02142
70,30000;4,68666;2103,52559;0,02146
70,40000;4,69333;2106,56188;0,02150
70,50000;4,69999;2108,44819;0,02154
70,60000;4,70669;2110,61034;0,02158
70,70000;4,71330;2112,28672;0,02162
70,80000;4,71997;2114,51147;0,02166
70,90000;4,72666;2116,69225;0,02170
71,00000;4,73330;2119,15839;0,02174
71,10000;4,74002;2122,30124;0,02178
71,20000;4,74669;2123,38530;0,02182
71,30000;4,75333;2125,74173;0,02186
71,40000;4,76002;2127,88172;0,02190
71,50000;4,76672;2129,47354;0,02194
71,60000;4,77336;2132,32189;0,02198
71,70000;4,77997;2134,42128;0,02202
71,80000;4,78669;2136,33254;0,02206
71,90000;4,79336;2138,73591;0,02210
72,00000;4,79997;2140,97332;0,02214
72,10000;4,80666;2143,44244;0,02218
72,20000;4,81333;2145,77373;0,02222
72,30000;4,81994;2147,58795;0,02226
72,40000;4,82663;2149,74377;0,02229
72,50000;4,83333;2151,40432;0,02234
72,60000;4,83999;2154,40616;0,02238
72,70000;4,84663;2155,48724;0,02242
72,80000;4,85336;2158,25401;0,02246
72,90000;4,86002;2161,36873;0,02250
73,00000;4,86663;2162,58131;0,02254
73,10000;4,87330;2165,57682;0,02258
73,20000;4,87999;2167,69204;0,02262
73,30000;4,88663;2169,25554;0,02266
73,40000;4,89333;2171,20145;0,02271
73,50000;4,90005;2173,12220;0,02275
73,60000;4,90669;2175,91710;0,02279
73,70000;4,91330;2177,40871;0,02283
73,80000;4,91999;2180,07211;0,02287
73,90000;4,92666;2181,90197;0,02291
74,00000;4,93330;2183,08326;0,02295
74,10000;4,94002;2186,45483;0,02299
74,20000;4,94672;2188,11873;0,02303
74,30000;4,95333;2190,67242;0,02308
74,40000;4,95999;2192,87835;0,02312
74,50000;4,96672;2194,00637;0,02316
74,60000;4,97336;2196,49747;0,02320
74,70000;4,97997;2198,76934;0,02324
74,80000;4,98666;2200,69941;0,02328
74,90000;4,99336;2202,32252;0,02333
75,00000;4,99994;2205,14257;0,02337
75,10000;5,00663;2207,16372;0,02341
75,20000;5,01333;2208,93715;0,02345
75,30000;5,01994;2210,75453;0,02349
75,40000;5,02663;2212,17088;0,02353
75,50000;5,03336;2214,67447;0,02357
75,60000;5,04008;2216,65800;0,02361
75,70000;5,04672;2218,69778;0,02365
75,80000;5,05336;2220,80350;0,02370
75,90000;5,06005;2222,81832;0,02374
76,00000;5,06666;2225,07436;0,02378
76,10000;5,07336;2227,02641;0,02382
76,20000;5,08002;2228,32691;0,02387
76,30000;5,08666;2231,77355;0,02391
76,40000;5,09336;2233,29328;0,02395
76,50000;5,09999;2235,30494;0,02399
76,60000;5,10669;2237,86496;0,02403
76,70000;5,11330;2238,85514;0,02407
76,80000;5,11994;2240,29962;0,02412
76,90000;5,12663;2242,68101;0,02416
77,00000;5,13327;2244,79921;0,02420
77,10000;5,14002;2247,27150;0,02425
77,20000;5,14669;2248,39021;0,02429
77,30000;5,15330;2251,62078;0,02433
77,40000;5,15999;2252,63294;0,02437
77,50000;5,16669;2254,47211;0,02442
77,60000;5,17336;2257,07609;0,02446
77,70000;5,18005;2258,83070;0,02450
77,80000;5,18675;2259,83355;0,02455
77,90000;5,19338;2262,08009;0,02459
78,00000;5,19999;2264,58069;0,02463
78,10000;5,20669;2266,24757;0,02467
78,20000;5,21333;2267,92078;0,02472
78,30000;5,21991;2270,52160;0,02476
78,40000;5,22663;2270,72835;0,02480
78,50000;5,23338;2273,42620;0,02484
78,60000;5,24005;2275,68541;0,02489
78,70000;5,24669;2277,34298;0,02493
78,80000;5,25336;2278,90350;0,02497
78,90000;5,26002;2280,33867;0,02502
79,00000;5,26663;2283,03969;0,02506
79,10000;5,27336;2284,97293;0,02510
79,20000;5,28002;2286,51147;0,02515
79,30000;5,28663;2287,97160;0,02519
79,40000;5,29333;2290,62252;0,02523
79,50000;5,30002;2292,56526;0,02528
79,60000;5,30666;2293,45206;0,02532
79,70000;5,31327;2294,76485;0,02537
79,80000;5,31999;2297,02406;0,02541
79,90000;5,32669;2298,59706;0,02545
80,00000;5,33333;2300,47088;0,02550
80,10000;5,34002;2302,99328;0,02554
80,20000;5,34669;2304,15892;0,02558
80,30000;5,35330;2306,72527;0,02563
80,40000;5,35997;2307,54931;0,02567
80,50000;5,36666;2309,35104;0,02571
80,60000;5,37338;2311,00228;0,02576
80,70000;5,38002;2312,87610;0,02580
80,80000;5,38669;2314,46475;0,02585
80,90000;5,39341;2316,53284;0,02589
81,00000;5,39999;2318,55381;0,02594
81,10000;5,40666;2320,21138;0,02598
81,20000;5,41333;2321,77507;0,02602
81,30000;5,41997;2323,07855;0,02607
81,40000;5,42666;2324,64522;0,02611
81,50000;5,43336;2326,57865;0,02615
81,60000;5,44002;2328,02629;0,02620
81,70000;5,44666;2329,62426;0,02624
81,80000;5,45333;2331,22222;0,02629
81,90000;5,46002;2333,03346;0,02633
82,00000;5,46666;2334,41535;0,02638
82,10000;5,47338;2336,85616;0,02642
82,20000;5,48002;2338,07508;0,02646
82,30000;5,48663;2339,96138;0,02651
82,40000;5,49333;2341,52190;0,02655
82,50000;5,49996;2342,46813;0,02660
82,60000;5,50663;2344,39839;0,02664
82,70000;5,51327;2344,87150;0,02669
82,80000;5,51997;2348,00484;0,02673
82,90000;5,52666;2348,94808;0,02678
83,00000;5,53330;2350,69338;0,02682
83,10000;5,53999;2352,71752;0,02687
83,20000;5,54669;2353,31301;0,02691
83,30000;5,55330;2355,81025;0,02696
83,40000;5,56002;2356,87252;0,02700
83,50000;5,56672;2357,56505;0,02705
83,60000;5,57338;2359,33233;0,02709
83,70000;5,57999;2361,32517;0,02714
83,80000;5,58669;2362,54707;0,02718
83,90000;5,59336;2364,00422;0,02723
84,00000;5,59997;2366,32600;0,02727
84,10000;5,60669;2367,84890;0,02732
84,20000;5,61338;2367,95228;0,02737
84,30000;5,61999;2370,74737;0,02741
84,40000;5,62666;2371,44288;0,02745
84,50000;5,63336;2373,00657;0,02750
84,60000;5,63999;2375,05585;0,02755
84,70000;5,64660;2375,24062;0,02759
84,80000;5,65330;2377,09247;0,02764
84,90000;5,65999;2379,14808;0,02768
85,00000;5,66663;2380,34502;0,02773
85,10000;5,67333;2381,90852;0,02778
85,20000;5,68002;2383,33438;0,02782
85,30000;5,68666;2384,55944;0,02787
85,40000;5,69333;2386,52732;0,02791
85,50000;5,70002;2388,04072;0,02796
85,60000;5,70669;2389,51333;0,02801
85,70000;5,71336;2390,72293;0,02805
85,80000;5,72002;2392,04206;0,02810
85,90000;5,72669;2393,82815;0,02814
86,00000;5,73333;2394,06321;0,02819
86,10000;5,74002;2396,98347;0,02824
86,20000;5,74669;2397,44093;0,02829
86,30000;5,75333;2399,23019;0,02833
86,40000;5,75997;2399,70963;0,02838
86,50000;5,76666;2400,30494;0,02842
86,60000;5,77333;2402,26965;0,02847
86,70000;5,77996;2403,40699;0,02852
86,80000;5,78663;2404,71680;0,02857
86,90000;5,79333;2406,32426;0,02861
87,00000;5,79997;2407,57447;0,02866
87,10000;5,80672;2409,51087;0,02870
87,20000;5,81338;2410,29747;0,02875
87,30000;5,81997;2411,97702;0,02880
87,40000;5,82666;2412,77907;0,02884
87,50000;5,83338;2414,11701;0,02889
87,60000;5,84002;2415,72447;0,02894
87,70000;5,84666;2416,18194;0,02899
87,80000;5,85336;2417,65473;0,02903
87,90000;5,86002;2418,87048;0,02908
88,00000;5,86663;2420,29298;0,02913
88,10000;5,87333;2421,86282;0,02918
88,20000;5,88002;2422,82487;0,02922
88,30000;5,88663;2423,37007;0,02927
88,40000;5,89333;2424,72999;0,02932
88,50000;5,90002;2425,95822;0,02937
88,60000;5,90669;2427,82272;0,02942
88,70000;5,91330;2427,65658;0,02946
88,80000;5,91996;2429,56802;0,02951
88,90000;5,92666;2430,65208;0,02956
89,00000;5,93333;2431,88366;0,02960
89,10000;5,94005;2433,72601;0,02965
89,20000;5,94675;2434,18347;0,02970
89,30000;5,95330;2435,21444;0,02975
89,40000;5,95999;2436,54922;0,02980
89,50000;5,96669;2437,43919;0,02984
89,60000;5,97335;2438,80842;0,02989
89,70000;5,97996;2440,32498;0,02994
89,80000;5,98669;2440,95493;0,02999
89,90000;5,99338;2441,84788;0,03004
90,00000;5,99999;2443,60268;0,03008
90,10000;6,00666;2444,83724;0,03013
90,20000;6,01333;2445,92763;0,03018
90,30000;6,01994;2446,36629;0,03023
90,40000;6,02660;2447,18418;0,03028
90,50000;6,03333;2448,56905;0,03033
90,60000;6,04002;2448,95145;0,03037
90,70000;6,04663;2451,40176;0,03042
90,80000;6,05333;2451,59920;0,03047
90,90000;6,06002;2452,55791;0,03052
91,00000;6,06666;2453,73920;0,03057
91,10000;6,07336;2454,90801;0,03062
91,20000;6,08005;2455,45637;0,03067
91,30000;6,08669;2455,80729;0,03072
91,40000;6,09338;2456,52180;0,03077
91,50000;6,10005;2458,18552;0,03081
91,60000;6,10669;2459,06599;0,03086
91,70000;6,11330;2460,11578;0,03091
91,80000;6,11996;2461,33469;0,03096
91,90000;6,12663;2461,97693;0,03101
92,00000;6,13327;2462,90453;0,03106
92,10000;6,13999;2464,33020;0,03111
92,20000;6,14666;2464,07334;0,03116
92,30000;6,15327;2465,37998;0,03121
92,40000;6,15996;2466,48286;0,03125
92,50000;6,16666;2467,09082;0,03130
92,60000;6,17333;2468,35984;0,03136
92,70000;6,18002;2469,16823;0,03140
92,80000;6,18674;2469,14309;0,03145
92,90000;6,19341;2470,16773;0,03150
93,00000;6,20002;2472,14492;0,03155
93,10000;6,20669;2473,20086;0,03160
93,20000;6,21335;2473,83695;0,03165
93,30000;6,21994;2473,87141;0,03170
93,40000;6,22666;2474,28194;0,03175
93,50000;6,23338;2475,06853;0,03180
93,60000;6,24002;2476,11497;0,03185
93,70000;6,24666;2476,97365;0,03190
93,80000;6,25333;2477,96997;0,03195
93,90000;6,26002;2478,27396;0,03200
94,00000;6,26660;2479,26731;0,03205
94,10000;6,27335;2480,19155;0,03210
94,20000;6,28002;2481,00627;0,03215
94,30000;6,28669;2480,86527;0,03220
94,40000;6,29335;2482,65136;0,03225
94,50000;6,30002;2483,42846;0,03230
94,60000;6,30669;2483,97999;0,03235
94,70000;6,31330;2483,98613;0,03240
94,80000;6,31999;2486,16394;0,03245
94,90000;6,32669;2485,74093;0,03251
95,00000;6,33327;2486,86895;0,03256
95,10000;6,33999;2487,95003;0,03261
95,20000;6,34669;2488,27897;0,03266
95,30000;6,35330;2488,60791;0,03271
95,40000;6,35996;2489,68285;0,03276
95,50000;6,36669;2489,77672;0,03281
95,60000;6,37338;2490,47242;0,03286
95,70000;6,38005;2491,24952;0,03291
95,80000;6,38672;2490,68551;0,03296
95,90000;6,39341;2491,52202;0,03301
96,00000;6,39999;2492,83500;0,03306
96,10000;6,40666;2493,76558;0,03311
96,20000;6,41333;2494,17294;0,03317
96,30000;6,41994;2495,06291;0,03322
96,40000;6,42663;2494,59594;0,03327
96,50000;6,43330;2495,76475;0,03332
96,60000;6,43999;2496,83317;0,03337
96,70000;6,44663;2496,83019;0,03342
96,80000;6,45330;2497,26251;0,03347
96,90000;6,45999;2498,00514;0,03352
97,00000;6,46666;2499,21456;0,03358
97,10000;6,47338;2499,46844;0,03363
97,20000;6,48005;2499,11435;0,03368
97,30000;6,48669;2500,21107;0,03373
97,40000;6,49335;2500,58081;0,03378
97,50000;6,50002;2501,21374;0,03384
97,60000;6,50669;2501,72447;0,03389
97,70000;6,51330;2501,31413;0,03394
97,80000;6,51999;2502,02846;0,03399
97,90000;6,52666;2502,57049;0,03404
98,00000;6,53330;2503,82703;0,03410
98,10000;6,54002;2504,44748;0,03415
98,20000;6,54669;2503,93040;0,03420
98,30000;6,55327;2505,10871;0,03425
98,40000;6,55996;2504,95821;0,03430
98,50000;6,56666;2505,76660;0,03435
98,60000;6,57335;2505,85116;0,03441
98,70000;6,57999;2506,31496;0,03446
98,80000;6,58669;2506,78807;0,03451
98,90000;6,59335;2506,49992;0,03456
99,00000;6,59999;2507,14216;0,03462
99,10000;6,60672;2507,75628;0,03467
99,20000;6,61341;2508,04145;0,03472
99,30000;6,61999;2508,23889;0,03477
99,40000;6,62666;2508,41752;0,03482
99,50000;6,63338;2508,42683;0,03488
99,60000;6,64002;2509,45147;0,03493
99,70000;6,64663;2508,79973;0,03498
99,80000;6,65333;2509,86516;0,03503
99,90000;6,66002;2510,89912;0,03508
100,00000;6,66666;2510,82405;0,03514
100,10000;6,67335;2511,68571;0,03519
100,20000;6,68002;2512,25289;0,03524
100,30000;6,68663;2510,99002;0,03529
100,40000;6,69330;2511,51640;0,03535
100,50000;6,69999;2512,38439;0,03540
100,60000;6,70666;2512,02099;0,03545
100,70000;6,71327;2512,09307;0,03550
100,80000;6,71996;2512,47529;0,03556
100,90000;6,72669;2512,95790;0,03561
101,00000;6,73333;2513,53122;0,03566
101,10000;6,74005;2514,21127;0,03572
101,20000;6,74672;2512,91711;0,03577
101,30000;6,75335;2513,55954;0,03582
101,40000;6,76005;2514,12038;0,03587
101,50000;6,76674;2513,85719;0,03593
101,60000;6,77338;2514,45882;0,03598
101,70000;6,77999;2515,17631;0,03603
101,80000;6,78669;2514,88183;0,03609
101,90000;6,79333;2515,16066;0,03614
102,00000;6,79993;2515,49911;0,03619
102,10000;6,80663;2516,04747;0,03625
102,20000;6,81330;2516,11955;0,03630
102,30000;6,81991;2516,03480;0,03635
102,40000;6,82660;2515,16700;0,03640
102,50000;6,83333;2516,18531;0,03646
102,60000;6,83999;2516,76179;0,03651
102,70000;6,84666;2516,92794;0,03657
102,80000;6,85335;2516,82140;0,03662
102,90000;6,86005;2516,83388;0,03668
103,00000;6,86669;2516,73367;0,03673
103,10000;6,87338;2516,95290;0,03678
103,20000;6,88005;2517,09390;0,03683
103,30000;6,88666;2516,63029;0,03689
103,40000;6,89335;2517,39174;0,03694
103,50000;6,90005;2518,16567;0,03700
103,60000;6,90669;2517,75514;0,03705
103,70000;6,91330;2518,08092;0,03710
103,80000;6,91996;2517,69871;0,03715
103,90000;6,92663;2516,80259;0,03721
104,00000;6,93324;2517,69237;0,03726
104,10000;6,93999;2518,10290;0,03732
104,20000;6,94669;2517,59216;0,03737
104,30000;6,95330;2517,64543;0,03742
104,40000;6,95999;2518,37876;0,03748
104,50000;6,96669;2517,41353;0,03753
104,60000;6,97335;2517,73950;0,03759
104,70000;6,97999;2518,25340;0,03764
104,80000;6,98669;2517,43868;0,03769
104,90000;6,99341;2517,48562;0,03775
105,00000;6,99999;2518,06527;0,03780
105,10000;7,00666;2517,82406;0,03785
105,20000;7,01335;2517,88981;0,03791
105,30001;7,01993;2517,51393;0,03796
105,40001;7,02663;2517,27886;0,03801
105,50001;7,03335;2517,50126;0,03807
105,60001;7,04005;2517,97140;0,03812
105,70001;7,04672;2517,41987;0,03818
105,80001;7,05335;2517,65791;0,03823
105,90001;7,06002;2517,91812;0,03829
106,00001;7,06660;2517,18480;0,03834
106,10001;7,07330;2518,40055;0,03839
106,20001;7,07999;2518,28469;0,03845
106,30001;7,08663;2516,89348;0,03850
106,40001;7,09330;2517,94625;0,03856
106,50001;7,09999;2517,53889;0,03861
106,60001;7,10666;2516,73684;0,03866
106,70001;7,11327;2517,88050;0,03872
106,80001;7,11996;2517,62345;0,03877
106,90001;7,12669;2517,58900;0,03883
107,00001;7,13335;2518,00586;0,03888
107,10001;7,14008;2517,48879;0,03894
107,20001;7,14674;2516,85902;0,03899
107,30001;7,15333;2516,72119;0,03905
107,40001;7,15999;2516,93111;0,03910
107,50001;7,16669;2517,23193;0,03916
107,60001;7,17335;2516,86219;0,03921
107,70001;7,18002;2517,50126;0,03927
107,80001;7,18672;2516,18531;0,03932
107,90001;7,19338;2516,48296;0,03938
108,00001;7,19999;2516,92161;0,03943
108,10001;7,20666;2516,66158;0,03948
108,20001;7,21332;2516,05045;0,03954
108,30001;7,21991;2515,96589;0,03959
108,40001;7,22663;2515,39256;0,03965
108,50001;7,23333;2515,30483;0,03970
108,60001;7,24002;2516,32314;0,03976
108,70001;7,24663;2515,40188;0,03981
108,80001;7,25330;2515,54288;0,03987
108,90001;7,25996;2514,94125;0,03992
109,00001;7,26660;2514,60914;0,03998
109,10001;7,27333;2515,15750;0,04003
109,20001;7,28002;2514,30217;0,04009
109,30001;7,28663;2513,83521;0,04014
109,40001;7,29333;2513,76629;0,04020
109,50001;7,30005;2514,54338;0,04025
109,60001;7,30669;2514,04829;0,04031
109,70001;7,31330;2514,15484;0,04037
109,80001;7,32002;2513,54072;0,04042
109,90001;7,32674;2513,36526;0,04048
110,00001;7,33335;2513,22426;0,04053
110,10001;7,34005;2513,55637;0,04059
110,20001;7,34669;2511,87999;0,04064
110,30001;7,35327;2512,47529;0,04070
110,40001;7,35993;2513,44033;0,04075
110,50001;7,36663;2512,49727;0,04081
110,60001;7,37332;2513,25872;0,04086
110,70001;7,37996;2511,99268;0,04092
110,80001;7,38666;2512,58817;0,04097
110,90001;7,39335;2511,34727;0,04103
111,00001;7,39996;2511,59798;0,04108
111,10001;7,40666;2511,22192;0,04114
111,20001;7,41333;2510,68920;0,04119
111,30001;7,41996;2510,66107;0,04125
111,40001;7,42666;2510,29748;0,04131
111,50001;7,43338;2509,43266;0,04136
111,60001;7,44005;2510,17530;0,04142
111,70001;7,44669;2510,15034;0,04147
111,80001;7,45335;2509,32314;0,04153
111,90001;7,46005;2509,58633;0,04158
112,00001;7,46669;2509,23838;0,04164
112,10001;7,47338;2508,66190;0,04169
112,20001;7,48002;2508,92192;0,04175
112,30001;7,48663;2508,03214;0,04181
112,40001;7,49333;2508,57733;0,04186
112,50001;7,49999;2507,71567;0,04192
112,60001;7,50666;2507,81588;0,04197
112,70001;7,51327;2508,23889;0,04202
112,80001;7,51996;2506,54053;0,04208
112,90001;7,52666;2506,13634;0,04213
113,00001;7,53330;2506,16763;0,04219
113,10001;7,53999;2506,60647;0,04225
113,20001;7,54669;2505,65391;0,04230
113,30001;7,55332;2505,21824;0,04236
113,40001;7,56002;2505,08040;0,04242
113,50001;7,56671;2503,84584;0,04247
113,60001;7,57338;2504,74513;0,04253
113,70001;7,57999;2504,37856;0,04258
113,80001;7,58669;2504,07774;0,04264
113,90001;7,59335;2503,77692;0,04269
114,00001;7,59993;2503,87099;0,04274
114,10001;7,60669;2503,51373;0,04280
114,20001;7,61335;2503,08439;0,04285
114,30001;7,61996;2503,07191;0,04291
114,40001;7,62666;2502,62376;0,04297
114,50001;7,63335;2501,91558;0,04302
114,60001;7,63999;2501,89062;0,04308
114,70001;7,64660;2501,29532;0,04313
114,80001;7,65330;2501,06957;0,04319
114,90001;7,66002;2501,22938;0,04324
115,00001;7,66666;2500,13582;0,04330
115,10001;7,67335;2500,62160;0,04336
115,20001;7,68008;2499,88213;0,04341
115,30001;7,68669;2498,97018;0,04347
115,40001;7,69335;2499,24604;0,04353
115,50001;7,70002;2498,15248;0,04358
115,60001;7,70669;2498,30913;0,04364
115,70001;7,71332;2498,34359;0,04369
115,80001;7,72002;2497,90177;0,04375
115,90001;7,72669;2497,52887;0,04381
116,00001;7,73332;2496,33193;0,04386
116,10001;7,74002;2497,60095;0,04392
116,20001;7,74669;2496,62325;0,04398
116,30001;7,75330;2495,75526;0,04403
116,40001;7,75996;2496,41333;0,04408
116,50001;7,76666;2495,31660;0,04414
116,60001;7,77332;2495,41700;0,04420
116,70001;7,77996;2494,87180;0,04425
116,80001;7,78666;2494,63674;0,04431
116,90001;7,79335;2493,99748;0,04437
116,93401;7,79563;2169,54071;0,04826
116,93801;7,79589;1900,03477;0,05227
116,94201;7,79615;1600,56073;0,05700
116,94401;7,79626;1449,15674;0,05945