File: 02_Appendices/Appendix_C_Experimental_Data/C_1_Materials_Tests/C_1_1_Tensile_tests/C_1_1_3_Smooth Comum/Specimen_RawData_10.csv
Text Inputs : Specimen label;"1"
Dimension : Length;50,00000;mm
Dimension : Final length;100,00000;mm
Test : Rate 1;2,00000;mm/min
General : Unique Identifier;"{D3021AB9-DE4B-4C42-AC83-917201171C7A}"

Time;Extension;Load;Strain 1
(sec);(mm);(N);(mm/mm)
0,00000;0,00000;31,42288;0,00029
0,20000;0,00487;32,50078;0,00029
0,40000;0,01199;32,19057;0,00029
0,60000;0,01923;32,36919;0,00029
0,80000;0,02632;39,28778;0,00034
1,00000;0,03319;46,99602;0,00039
1,20000;0,03989;52,81478;0,00044
1,40000;0,04664;60,19713;0,00049
1,60000;0,05330;65,90937;0,00053
1,80000;0,05989;71,52134;0,00058
2,00000;0,06664;77,07690;0,00062
2,20000;0,07333;82,68886;0,00067
2,40000;0,07991;87,78068;0,00071
2,60000;0,08664;91,25565;0,00074
2,80000;0,09333;94,21047;0,00078
3,00000;0,10017;99,51536;0,00082
3,20000;0,10672;101,11340;0,00084
3,40000;0,11339;102,59865;0,00086
3,60000;0,12000;103,07806;0,00087
3,80000;0,12655;102,76472;0,00088
4,00000;0,13333;102,70831;0,00089
4,20000;0,14006;103,19400;0,00090
4,40000;0,14667;103,02793;0,00091
4,60000;0,15333;103,97109;0,00091
4,80000;0,16003;103,55121;0,00092
5,00000;0,16667;103,80815;0,00093
5,20000;0,17325;103,78308;0,00093
5,40000;0,18000;104,44424;0,00094
5,60000;0,18667;105,54093;0,00095
5,80000;0,19322;104,77011;0,00095
6,00000;0,20003;105,27773;0,00096
6,20000;0,20678;105,13046;0,00097
6,40000;0,21336;106,44649;0,00097
6,60000;0,21997;106,37130;0,00097
6,80000;0,22667;106,18642;0,00098
7,00000;0,23336;106,26789;0,00098
7,20000;0,24000;106,81624;0,00098
7,40000;0,24675;106,43083;0,00099
7,60000;0,25342;106,66584;0,00099
7,80000;0,25997;106,42143;0,00099
8,00000;0,26667;106,28356;0,00099
8,20000;0,27333;106,72851;0,00100
8,40000;0,27991;107,48679;0,00100
8,60000;0,28661;106,61883;0,00100
8,80000;0,29330;106,70971;0,00100
9,00000;0,30009;106,34622;0,00101
9,20000;0,30669;106,72538;0,00101
9,40000;0,31339;106,32742;0,00101
9,60000;0,32003;107,16405;0,00101
9,80000;0,32658;107,32072;0,00101
10,00000;0,33333;108,13228;0,00102
10,20000;0,34003;107,13584;0,00102
10,40000;0,34667;107,84087;0,00102
10,60000;0,35339;108,05394;0,00102
10,80000;0,36006;108,02575;0,00103
11,00000;0,36667;108,55530;0,00103
11,20000;0,37328;109,16631;0,00103
11,40000;0,38003;108,87804;0,00103
11,60000;0,38669;108,79970;0,00104
11,80000;0,39336;109,44206;0,00104
12,00000;0,40011;111,42551;0,00104
12,20000;0,40675;111,01504;0,00105
12,40000;0,41330;110,69855;0,00105
12,60000;0,41997;111,45058;0,00105
12,80000;0,42667;113,62517;0,00106
13,00000;0,43333;114,53701;0,00107
13,20000;0,43997;116,34185;0,00108
13,40000;0,44675;117,88977;0,00110
13,60000;0,45339;119,83876;0,00111
13,80000;0,45994;122,68390;0,00113
14,00000;0,46667;127,14904;0,00116
14,20000;0,47333;130,32947;0,00118
14,40000;0,47994;133,57570;0,00121
14,60000;0,48661;135,82549;0,00123
14,80000;0,49328;139,41326;0,00125
15,00000;0,50017;143,42405;0,00128
15,20000;0,50672;147,28757;0,00131
15,40000;0,51339;151,67436;0,00135
15,60000;0,52000;156,98551;0,00138
15,80000;0,52655;160,01241;0,00141
16,00000;0,53339;164,28326;0,00144
16,20000;0,54008;167,72064;0,00147
16,40000;0,54669;171,30841;0,00150
16,60000;0,55333;175,93021;0,00153
16,80000;0,56003;178,90383;0,00156
17,00000;0,56667;182,93655;0,00159
17,20000;0,57328;186,70605;0,00163
17,40000;0,58000;190,59151;0,00166
17,60000;0,58667;195,29478;0,00169
17,80000;0,59328;198,92955;0,00173
18,00000;0,60003;203,47300;0,00176
18,20000;0,60672;206,17717;0,00180
18,40000;0,61333;211,50084;0,00183
18,60000;0,61997;215,22022;0,00187
18,80000;0,62664;218,75787;0,00190
19,00000;0,63330;223,91861;0,00194
19,20000;0,64000;227,46564;0,00198
19,40000;0,64675;231,05342;0,00201
19,60000;0,65339;235,21462;0,00205
19,80000;0,65997;239,05933;0,00208
20,00000;0,66669;243,79394;0,00212
20,20000;0,67339;247,32845;0,00215
20,40000;0,68003;251,28596;0,00219
20,60000;0,68664;255,21526;0,00222
20,80000;0,69333;258,99732;0,00226
21,00000;0,70003;263,40606;0,00230
21,20000;0,70667;267,75524;0,00234
21,40000;0,71339;272,12009;0,00238
21,60000;0,72003;276,29382;0,00241
21,80000;0,72658;280,13226;0,00245
22,00000;0,73336;284,36554;0,00249
22,20000;0,74008;288,63326;0,00253
22,40000;0,74667;292,84144;0,00257
22,60000;0,75336;297,05591;0,00261
22,80000;0,76003;300,38988;0,00265
23,00000;0,76664;305,81697;0,00269
23,20000;0,77328;309,41726;0,00273
23,40000;0,78003;313,07084;0,00277
23,60000;0,78669;318,06866;0,00281
23,80000;0,79325;322,40532;0,00285
24,00000;0,80006;326,40670;0,00289
24,20000;0,80675;330,13860;0,00293
24,40000;0,81336;334,67894;0,00297
24,60000;0,82000;338,88086;0,00301
24,80000;0,82669;342,80079;0,00305
25,00000;0,83339;348,21222;0,00309
25,20000;0,83997;351,79686;0,00313
25,40000;0,84669;354,94282;0,00317
25,60000;0,85336;359,34527;0,00321
25,80000;0,85994;363,42500;0,00325
26,00000;0,86667;368,11261;0,00329
26,20000;0,87339;371,34003;0,00333
26,40000;0,88000;374,77426;0,00337
26,60000;0,88664;378,77564;0,00341
26,80000;0,89333;383,05277;0,00345
27,00000;0,90006;387,11997;0,00349
27,20000;0,90667;391,36261;0,00353
27,40000;0,91336;394,53362;0,00357
27,60000;0,92003;399,19615;0,00361
27,80000;0,92658;402,84661;0,00364
28,00000;0,93333;407,97289;0,00369
28,20000;0,94006;410,37309;0,00373
28,40000;0,94669;415,34584;0,00376
28,60000;0,95339;419,04328;0,00380
28,80000;0,96008;422,49318;0,00384
29,00000;0,96672;426,95203;0,00388
29,20000;0,97330;430,31108;0,00392
29,40000;0,98000;433,83930;0,00396
29,60000;0,98664;437,17953;0,00400
29,80000;0,99322;441,29998;0,00404
30,00000;1,00003;444,80315;0,00408
30,20000;1,00675;448,37217;0,00412
30,40000;1,01333;452,06961;0,00416
30,60000;1,02000;456,80734;0,00419
30,80000;1,02669;460,06609;0,00423
31,00000;1,03336;463,43454;0,00427
31,20000;1,04000;467,92785;0,00431
31,40000;1,04672;470,74165;0,00435
31,60000;1,05336;474,83081;0,00439
31,80000;1,05997;478,71312;0,00443
32,00000;1,06667;483,13439;0,00447
32,20000;1,07339;485,55653;0,00450
32,40000;1,07997;489,48582;0,00454
32,60000;1,08664;492,80412;0,00458
32,80000;1,09333;496,18511;0,00462
33,00000;1,10006;499,78853;0,00466
33,20000;1,10672;503,53925;0,00470
33,40000;1,11342;506,95469;0,00473
33,60000;1,12003;510,60198;0,00477
33,80000;1,12655;514,36522;0,00481
34,00000;1,13333;518,49508;0,00485
34,20000;1,14006;521,20234;0,00489
34,40000;1,14669;525,36670;0,00493
34,60000;1,15339;527,79820;0,00496
34,80000;1,16006;530,66532;0,00500
35,00000;1,16669;533,98986;0,00503
35,20000;1,17325;537,23296;0,00507
35,40000;1,18000;540,39774;0,00510
35,60000;1,18667;543,62514;0,00514
35,80000;1,19322;546,58311;0,00517
36,00000;1,19997;550,25546;0,00521
36,20000;1,20675;552,98158;0,00525
36,40000;1,21339;555,96144;0,00528
36,60000;1,22000;559,48342;0,00532
36,80000;1,22667;561,97448;0,00535
37,00000;1,23336;565,38368;0,00539
37,20000;1,24000;569,12499;0,00543
37,40000;1,24678;572,01399;0,00546
37,60000;1,25345;575,50776;0,00550
37,80000;1,25997;578,71323;0,00553
38,00000;1,26667;581,12601;0,00556
38,20000;1,27333;584,30014;0,00560
38,40000;1,27991;587,38342;0,00563
38,60000;1,28661;590,35392;0,00567
38,80000;1,29330;593,33066;0,00570
39,00000;1,30006;596,20403;0,00574
39,20000;1,30669;599,79493;0,00577
39,40000;1,31342;602,35183;0,00581
39,60000;1,32003;606,53179;0,00584
39,80000;1,32661;608,63746;0,00587
40,00000;1,33333;612,60439;0,00591
40,20000;1,34003;614,84789;0,00595
40,40000;1,34669;618,36364;0,00598
40,60000;1,35339;620,80771;0,00602
40,80000;1,36006;623,75311;0,00605
41,00000;1,36667;627,61661;0,00609
41,20000;1,37330;631,00071;0,00612
41,40000;1,38000;632,60505;0,00615
41,60000;1,38669;636,45290;0,00619
41,80000;1,39327;639,29805;0,00622
42,00000;1,40008;641,78598;0,00626
42,20000;1,40675;644,93194;0,00629
42,40000;1,41330;648,04028;0,00633
42,60000;1,41997;650,75699;0,00636
42,80000;1,42666;653,65541;0,00640
43,00000;1,43336;656,21538;0,00643
43,20000;1,44000;659,45536;0,00646
43,40000;1,44675;662,92719;0,00650
43,60000;1,45342;665,89457;0,00653
43,80000;1,45997;668,63005;0,00657
44,00000;1,46667;671,31538;0,00660
44,20000;1,47333;674,06967;0,00664
44,40000;1,47991;677,09968;0,00667
44,60000;1,48658;679,90725;0,00670
44,80000;1,49327;683,16599;0,00674
45,00000;1,50008;685,23404;0,00677
45,20000;1,50672;689,26676;0,00681
45,40000;1,51342;691,79544;0,00684
45,60000;1,52003;694,80352;0,00688
45,80000;1,52661;697,54841;0,00691
46,00000;1,53339;700,22121;0,00694
46,20000;1,54011;703,98450;0,00698
46,40000;1,54669;706,40035;0,00701
46,60000;1,55333;709,47111;0,00705
46,80000;1,56000;711,10991;0,00708
47,00000;1,56664;714,53159;0,00712
47,20000;1,57325;717,77469;0,00715
47,40000;1,57997;720,32530;0,00718
47,60000;1,58669;723,74698;0,00722
47,80000;1,59327;725,45786;0,00725
48,00000;1,60003;728,19018;0,00728
48,20000;1,60675;731,04473;0,00732
48,40000;1,61333;733,88051;0,00735
48,60000;1,61997;736,66922;0,00738
48,80000;1,62664;739,73062;0,00741
49,00000;1,63330;741,85506;0,00745
49,20000;1,64000;744,58742;0,00748
49,40000;1,64675;746,83093;0,00751
49,60000;1,65342;749,91109;0,00754
49,80000;1,65997;751,60628;0,00757
50,00000;1,66666;754,45771;0,00760
50,20000;1,67336;756,92683;0,00763
50,40000;1,68000;759,65603;0,00767
50,60000;1,68664;762,31319;0,00770
50,80000;1,69336;764,50659;0,00773
51,00000;1,70005;765,81948;0,00776
51,20000;1,70666;768,90904;0,00779
51,40000;1,71339;771,83256;0,00782
51,60000;1,72003;774,08236;0,00785
51,80000;1,72661;777,05909;0,00788
52,00000;1,73339;779,33394;0,00792
52,20000;1,74008;782,57388;0,00795
52,40000;1,74666;785,19033;0,00798
52,60000;1,75336;787,02653;0,00801
52,80000;1,76003;788,97234;0,00804
53,00000;1,76664;792,24994;0,00807
53,20000;1,77325;795,22664;0,00811
53,40000;1,78000;797,57990;0,00814
53,60000;1,78666;799,94248;0,00817
53,80000;1,79322;802,51498;0,00820
54,00000;1,80005;804,85260;0,00823
54,20000;1,80675;807,30291;0,00827
54,40000;1,81336;810,07602;0,00830
54,60000;1,82000;812,77387;0,00833
54,80000;1,82672;815,48113;0,00836
55,00000;1,83339;817,85312;0,00840
55,20000;1,83997;821,09626;0,00843
55,40000;1,84672;822,87285;0,00846
55,60000;1,85336;825,64279;0,00849
55,80000;1,85994;828,00854;0,00852
56,00000;1,86666;831,10752;0,00856
56,20000;1,87336;833,83983;0,00859
56,40000;1,88000;836,38113;0,00862
56,60000;1,88664;838,24862;0,00865
56,80000;1,89333;840,75844;0,00869
57,00000;1,90003;842,49442;0,00872
57,20000;1,90666;847,08482;0,00875
57,40000;1,91339;848,82081;0,00878
57,60000;1,92003;851,18655;0,00882
57,80000;1,92661;853,46140;0,00885
58,00000;1,93336;856,39115;0,00888
58,20000;1,94008;859,09842;0,00891
58,40000;1,94669;860,95966;0,00895
58,60000;1,95339;864,07745;0,00898
58,80000;1,96008;866,15179;0,00901
59,00000;1,96672;868,37653;0,00904
59,20000;1,97330;871,62582;0,00908
59,40000;1,98000;874,26733;0,00911
59,60000;1,98664;876,07848;0,00914
59,80000;1,99322;878,38462;0,00917
60,00000;2,00003;880,68768;0,00920
60,20000;2,00675;883,79299;0,00924
60,40000;2,01336;886,88564;0,00927
60,60000;2,02000;888,92234;0,00930
60,80000;2,02669;890,97787;0,00933
61,00000;2,03333;893,79484;0,00936
61,20000;2,03997;896,90946;0,00940
61,40000;2,04672;898,64852;0,00943
61,60000;2,05336;901,52184;0,00946
61,80000;2,05994;903,35803;0,00950
62,00000;2,06666;906,53850;0,00953
62,20000;2,07336;908,59402;0,00956
62,40000;2,07997;911,95619;0,00959
62,60000;2,08664;913,70149;0,00962
62,80000;2,09333;915,76017;0,00966
63,00000;2,10008;918,73379;0,00969
63,20000;2,10678;921,50373;0,00973
63,40000;2,11344;924,13891;0,00975
63,60000;2,12003;926,60179;0,00979
63,80000;2,12658;928,50067;0,00982
64,00000;2,13333;931,77827;0,00985
64,20000;2,14003;933,10997;0,00989
64,40000;2,14666;937,20537;0,00992
64,60000;2,15333;938,80026;0,00995
64,80000;2,16005;941,62654;0,00998
65,00000;2,16669;944,12705;0,01002
65,20000;2,17327;945,72194;0,01005
65,40000;2,18000;948,39167;0,01008
65,60000;2,18666;951,54075;0,01011
65,80000;2,19322;953,41764;0,01015
66,00000;2,20000;956,72971;0,01018
66,20000;2,20678;958,81652;0,01022
66,40000;2,21339;961,51447;0,01025
66,60000;2,22000;963,99924;0,01028
66,80000;2,22666;966,29607;0,01031
67,00000;2,23336;968,02255;0,01035
67,20000;2,23997;970,91161;0,01038
67,40000;2,24675;973,64392;0,01041
67,60000;2,25344;976,42327;0,01045
67,80000;2,25997;979,51284;0,01048
68,00000;2,26664;981,14219;0,01051
68,20000;2,27330;983,21028;0,01055
68,40000;2,27991;985,53216;0,01058
68,60000;2,28664;987,79444;0,01062
68,80000;2,29333;990,47665;0,01065
69,00000;2,30008;993,49106;0,01068
69,20000;2,30672;995,27398;0,01072
69,40000;2,31342;997,74310;0,01075
69,60000;2,32003;1000,93298;0,01078
69,80000;2,32661;1003,18901;0,01081
70,00000;2,33333;1006,31611;0,01085
70,20000;2,34000;1008,18370;0,01088
70,40000;2,34666;1011,70251;0,01092
70,60000;2,35336;1013,47603;0,01095
70,80000;2,36005;1015,92951;0,01098
71,00000;2,36666;1018,06028;0,01101
71,20000;2,37327;1020,54505;0,01105
71,40000;2,38003;1023,30558;0,01108
71,60000;2,38666;1026,10691;0,01112
71,80000;2,39333;1027,90231;0,01115
72,00000;2,40011;1030,63779;0,01118
72,20000;2,40675;1032,64004;0,01122
72,40000;2,41330;1036,02726;0,01125
72,60000;2,41997;1037,59402;0,01128
72,80000;2,42666;1039,68401;0,01132
73,00000;2,43336;1042,18451;0,01135
73,20000;2,44000;1045,07981;0,01139
73,40000;2,44675;1046,69975;0,01142
73,60000;2,45342;1049,76427;0,01145
73,80000;2,45994;1052,07358;0,01148
74,00000;2,46664;1054,69311;0,01152
74,20000;2,47333;1056,59515;0,01155
74,40000;2,47994;1059,47163;0,01159
74,60000;2,48661;1061,69004;0,01162
74,80000;2,49327;1064,40363;0,01166
75,00000;2,50008;1066,57818;0,01169
75,20000;2,50672;1069,49853;0,01173
75,40000;2,51342;1071,60108;0,01176
75,60000;2,52003;1074,48380;0,01179
75,80000;2,52661;1076,46417;0,01182
76,00000;2,53339;1079,09627;0,01186
76,20000;2,54011;1080,95752;0,01189
76,40000;2,54669;1083,46110;0,01193
76,60000;2,55333;1086,25609;0,01196
76,80000;2,56000;1088,48400;0,01199
77,00000;2,56664;1091,04402;0,01203
77,20000;2,57327;1093,73871;0,01206
77,40000;2,58000;1095,37439;0,01210
77,60000;2,58669;1098,15057;0,01213
77,80000;2,59330;1100,67297;0,01217
78,00000;2,60003;1102,82879;0,01220
78,20000;2,60675;1105,03789;0,01223
78,40000;2,61333;1107,72951;0,01227
78,60000;2,61997;1109,88524;0,01230
78,80000;2,62664;1112,38575;0,01234
79,00000;2,63330;1114,22818;0,01237
79,20000;2,64000;1117,52143;0,01240
79,40000;2,64675;1119,68033;0,01244
79,60000;2,65339;1122,11499;0,01248
79,80000;2,65997;1124,58104;0,01251
80,00000;2,66669;1127,20057;0,01254
80,20000;2,67339;1129,26234;0,01258
80,40000;2,68003;1130,92624;0,01261
80,60000;2,68666;1134,04086;0,01265
80,80000;2,69336;1136,67604;0,01268
81,00000;2,70005;1137,90436;0,01272
81,20000;2,70666;1140,90936;0,01275
81,40000;2,71339;1143,10272;0,01279
81,60000;2,72003;1146,33013;0,01282
81,80000;2,72658;1148,13810;0,01285
82,00000;2,73339;1150,90804;0,01289
82,20000;2,74008;1152,80384;0,01292
82,40000;2,74666;1155,16018;0,01296
82,60000;2,75333;1157,03708;0,01300
82,80000;2,76003;1160,15170;0,01303
83,00000;2,76664;1162,43279;0,01307
83,20000;2,77327;1164,82992;0,01310
83,40000;2,78000;1166,72246;0,01314
83,60000;2,78666;1169,62092;0,01317
83,80000;2,79327;1171,62000;0,01321
84,00000;2,80005;1174,15814;0,01324
84,20000;2,80675;1176,46744;0,01328
84,40000;2,81336;1178,67654;0,01331
84,60000;2,82000;1181,47461;0,01335
84,80000;2,82669;1183,85917;0,01338
85,00000;2,83336;1185,43534;0,01342
85,20000;2,83997;1188,36509;0,01345
85,40000;2,84669;1190,76837;0,01349
85,60000;2,85339;1193,25323;0,01352
85,80000;2,85994;1195,26796;0,01356
86,00000;2,86666;1198,56745;0,01359
86,20000;2,87336;1199,97123;0,01363
86,40000;2,88000;1202,63780;0,01366
86,60000;2,88664;1204,18258;0,01370
86,80000;2,89333;1206,91489;0,01374
87,00000;2,90005;1209,57522;0,01377
87,20000;2,90666;1211,89076;0,01381
87,40000;2,91339;1213,95886;0,01385
87,60000;2,92003;1216,83534;0,01388
87,80000;2,92661;1218,40518;0,01391
88,00000;2,93336;1221,56059;0,01395
88,20000;2,94008;1223,45937;0,01399
88,40000;2,94669;1225,82829;0,01402
88,60000;2,95339;1228,62644;0,01406
88,80000;2,96008;1231,37441;0,01410
89,00000;2,96672;1232,83146;0,01413
89,20000;2,97333;1234,72093;0,01417
89,40000;2,98000;1237,30293;0,01420
89,60000;2,98663;1239,92246;0,01424
89,80000;2,99322;1242,52001;0,01427
90,00000;3,00002;1244,94219;0,01431
90,20000;3,00675;1247,07287;0,01435
90,40000;3,01333;1249,36970;0,01438
90,60000;3,02000;1251,71039;0,01442
90,80000;3,02669;1254,77491;0,01446
91,00000;3,03336;1256,04700;0,01449
91,20000;3,04000;1258,81387;0,01453
91,40000;3,04672;1261,48984;0,01457
91,60000;3,05339;1263,66438;0,01460
91,80000;3,05997;1265,74188;0,01464
92,00000;3,06666;1268,17338;0,01468
92,20000;3,07336;1270,42318;0,01471
92,40000;3,07997;1272,22808;0,01475
92,60000;3,08663;1274,86950;0,01479
92,80000;3,09333;1277,96540;0,01482
93,00000;3,10005;1279,06837;0,01486
93,20000;3,10672;1281,14894;0,01490
93,40000;3,11342;1283,50528;0,01493
93,60000;3,12002;1287,00528;0,01497
93,80000;3,12658;1289,14546;0,01501
94,00000;3,13333;1291,17277;0,01504
94,20000;3,14003;1293,65129;0,01508
94,40000;3,14669;1295,52195;0,01512
94,60000;3,15336;1298,42032;0,01516
94,80000;3,16005;1300,63882;0,01519
95,00000;3,16669;1302,51888;0,01523
95,20000;3,17327;1304,51173;0,01527
95,40000;3,18002;1307,16264;0,01530
95,60000;3,18666;1310,25529;0,01534
95,80000;3,19322;1311,68729;0,01537
96,00000;3,19997;1313,58616;0,01541
96,20000;3,20672;1316,57859;0,01545
96,40000;3,21339;1318,78452;0,01549
96,60000;3,22000;1321,27246;0,01553
96,80000;3,22666;1323,43136;0,01557
97,00000;3,23336;1326,10733;0,01560
97,20000;3,24000;1327,91214;0,01564
97,40000;3,24678;1330,37185;0,01568
97,60000;3,25344;1332,35538;0,01572
97,80000;3,25997;1335,41981;0,01575
98,00000;3,26666;1336,73279;0,01579
98,20000;3,27330;1339,17993;0,01583
98,40000;3,27991;1341,54567;0,01587
98,60000;3,28661;1343,40068;0,01590
98,80000;3,29333;1346,24895;0,01594
99,00000;3,30005;1347,85641;0,01598
99,20000;3,30672;1351,03688;0,01602
99,40000;3,31339;1352,35284;0,01606
99,60000;3,32002;1356,06602;0,01610
99,80000;3,32658;1357,67348;0,01613
100,00000;3,33333;1359,34046;0,01617
100,20000;3,34002;1361,52124;0,01621
100,40000;3,34669;1363,92461;0,01625
100,60000;3,35339;1366,31541;0,01629
100,80000;3,36008;1368,69997;0,01633
101,00000;3,36666;1370,65519;0,01636
101,20000;3,37330;1373,15253;0,01640
101,40000;3,38000;1375,44312;0,01644
101,60000;3,38669;1378,37594;0,01648
101,80000;3,39330;1379,67952;0,01652
102,00000;3,40011;1381,95744;0,01656
102,20000;3,40675;1384,19475;0,01660
102,40000;3,41330;1387,09946;0,01664
102,60000;3,41997;1389,21132;0,01667
102,80000;3,42666;1391,12277;0,01671
103,00000;3,43333;1393,68586;0,01676
103,20000;3,44000;1396,33054;0,01679
103,40000;3,44675;1397,94732;0,01683
103,60000;3,45341;1400,81132;0,01688
103,80000;3,45997;1402,39373;0,01691
104,00000;3,46666;1405,24199;0,01695
104,20000;3,47333;1407,25989;0,01699
104,40000;3,47994;1408,74516;0,01703
104,60000;3,48661;1410,75365;0,01707
104,80000;3,49327;1413,16010;0,01711
105,00000;3,50005;1415,32533;0,01715
105,20000;3,50669;1417,45294;0,01719
105,40001;3,51341;1419,75917;0,01723
105,60001;3,52002;1422,62625;0,01727
105,80001;3,52661;1423,86081;0,01730
106,00001;3,53341;1426,53985;0,01735
106,20001;3,54011;1429,23770;0,01739
106,40001;3,54669;1431,09895;0,01743
106,60001;3,55333;1433,33310;0,01747
106,80001;3,56000;1435,66756;0,01750
107,00001;3,56663;1436,98985;0,01754
107,20001;3,57324;1439,33361;0,01758
107,40001;3,58000;1442,16316;0,01762
107,60001;3,58669;1444,66050;0,01766
107,80001;3,59327;1446,36817;0,01770
108,00001;3,60002;1448,99711;0,01774
108,20001;3,60675;1450,84271;0,01778
108,40001;3,61333;1453,44036;0,01782
108,60001;3,61997;1455,49271;0,01786
108,80001;3,62663;1457,53259;0,01790
109,00001;3,63330;1459,67584;0,01794
109,20001;3,64000;1461,85048;0,01798
109,40001;3,64675;1464,17227;0,01802
109,60001;3,65341;1465,91449;0,01806
109,80001;3,65997;1467,78515;0,01810
110,00001;3,66666;1470,59895;0,01814
110,20001;3,67339;1473,35948;0,01818
110,40001;3,68000;1474,91368;0,01821
110,60001;3,68663;1476,70601;0,01826
110,80001;3,69336;1479,03729;0,01830
111,00001;3,70005;1481,24006;0,01834
111,20001;3,70666;1483,68413;0,01838
111,40001;3,71336;1485,32605;0,01842
111,60001;3,72002;1488,46572;0,01846
111,80001;3,72661;1489,61572;0,01850
112,00001;3,73339;1492,54547;0,01854
112,20001;3,74008;1493,63903;0,01858
112,40001;3,74669;1496,60017;0,01862
112,60001;3,75336;1498,19506;0,01866
112,80001;3,76002;1500,52942;0,01870
113,00001;3,76666;1502,66960;0,01874
113,20001;3,77324;1505,10110;0,01878
113,40001;3,78002;1506,13831;0,01882
113,60001;3,78669;1509,07738;0,01887
113,80001;3,79324;1511,23321;0,01891
114,00001;3,80002;1512,47093;0,01895
114,20001;3,80675;1515,44139;0,01899
114,40001;3,81336;1517,12094;0,01903
114,60001;3,82002;1520,07891;0,01907
114,80001;3,82672;1521,58290;0,01912
115,00001;3,83339;1523,51623;0,01916
115,20001;3,84000;1525,64384;0,01920
115,40001;3,84672;1528,24456;0,01924
115,60001;3,85336;1530,73249;0,01928
115,80001;3,85994;1532,70969;0,01933
116,00001;3,86666;1534,55846;0,01937
116,20001;3,87336;1537,18116;0,01941
116,40001;3,88000;1537,92370;0,01945
116,60001;3,88663;1540,46807;0,01949
116,80001;3,89333;1541,82483;0,01953
117,00001;3,90005;1544,67942;0,01958
117,20001;3,90669;1547,46193;0,01962
117,40001;3,91339;1548,39251;0,01966
117,60001;3,92002;1550,67053;0,01971
117,80001;3,92660;1552,98300;0,01975
118,00001;3,93336;1555,48342;0,01979
118,20001;3,94008;1557,38546;0,01983
118,40001;3,94669;1559,71041;0,01988
118,60001;3,95336;1562,25478;0,01992
118,80001;3,96008;1563,61461;0,01996
119,00001;3,96672;1565,56051;0,02001
119,20001;3,97327;1567,70684;0,02005
119,40001;3,98000;1569,30499;0,02009
119,60001;3,98663;1571,13802;0,02013
119,80001;3,99321;1573,27186;0,02017
120,00001;4,00002;1575,51859;0,02022
120,20001;4,00675;1577,86552;0,02026
120,40001;4,01339;1579,15950;0,02030
120,60001;4,02002;1582,26471;0,02035
120,80001;4,02669;1584,41756;0,02039
121,00001;4,03336;1585,51726;0,02043
121,20001;4,03997;1588,09610;0,02048
121,40001;4,04672;1590,17667;0,02052
121,60001;4,05336;1592,37012;0,02057
121,80001;4,05997;1594,51030;0,02061
122,00001;4,06666;1595,89835;0,02065
122,20001;4,07336;1598,28290;0,02069
122,40001;4,07994;1599,90918;0,02074
122,60001;4,08663;1602,39395;0,02078
122,80001;4,09333;1604,53413;0,02082
123,00001;4,10008;1606,93433;0,02087
123,20001;4,10678;1608,46971;0,02091
123,40001;4,11344;1610,20551;0,02096
123,60001;4,12002;1613,00991;0,02100
123,80001;4,12658;1613,92186;0,02104
124,00001;4,13333;1616,05570;0,02108
124,20001;4,14005;1618,83496;0,02113
124,40001;4,14669;1620,16675;0,02117
124,60001;4,15333;1622,65785;0,02122
124,80001;4,16005;1624,61307;0,02126
125,00001;4,16669;1626,76573;0,02131
125,20001;4,17327;1628,66153;0,02135
125,40001;4,18000;1630,21255;0,02139
125,60001;4,18666;1632,64088;0,02144
125,80001;4,19324;1634,05091;0,02148
126,00001;4,20000;1636,53884;0,02153
126,20001;4,20675;1639,13965;0,02157
126,40001;4,21339;1639,82902;0,02162
126,60001;4,21999;1642,43914;0,02166
126,80001;4,22666;1644,66389;0,02171
127,00001;4,23336;1646,08955;0,02175
127,20001;4,24000;1648,95672;0,02180
127,40001;4,24675;1650,83986;0,02184
127,60001;4,25344;1652,79508;0,02189
127,80001;4,25997;1654,51840;0,02193
128,00001;4,26666;1656,20744;0,02198
128,20001;4,27330;1658,68904;0,02202
128,40001;4,27991;1660,39988;0,02207
128,60001;4,28663;1662,50877;0,02211
128,80001;4,29333;1664,48280;0,02216
129,00001;4,30005;1666,16533;0,02220
129,20001;4,30672;1668,16767;0,02225
129,40001;4,31338;1669,52126;0,02229
129,60001;4,32002;1672,27238;0,02234
129,80001;4,32660;1673,53526;0,02238
130,00001;4,33333;1676,56522;0,02243
130,20001;4,33999;1678,27290;0,02248
130,40001;4,34666;1679,45120;0,02252
130,60001;4,35336;1682,29938;0,02257
130,80001;4,36005;1682,92932;0,02261
131,00001;4,36669;1685,55509;0,02266
131,20001;4,37330;1688,30939;0,02271
131,40001;4,38002;1689,14590;0,02275
131,60001;4,38669;1691,41777;0,02280
131,80001;4,39330;1692,80581;0,02284
132,00001;4,40011;1694,75172;0,02289
132,20001;4,40675;1696,35601;0,02294
132,40001;4,41330;1698,69978;0,02298
132,60001;4,41997;1701,23149;0,02303
132,80001;4,42666;1702,83597;0,02308
133,00001;4,43333;1704,65335;0,02312
133,20001;4,43999;1706,53649;0,02317
133,40001;4,44675;1708,62023;0,02322
133,60001;4,45341;1709,70745;0,02327
133,80001;4,45994;1711,52800;0,02331
134,00001;4,46666;1713,71195;0,02336
134,20001;4,47333;1715,30060;0,02340
134,40001;4,47994;1716,96767;0,02345
134,60001;4,48663;1719,26133;0,02350
134,80001;4,49330;1721,07872;0,02354
135,00001;4,50008;1722,67985;0,02359
135,20001;4,50672;1724,74161;0,02364
135,40001;4,51341;1726,28649;0,02369
135,60001;4,52002;1727,44580;0,02373
135,80001;4,52660;1730,30347;0,02378
136,00001;4,53338;1731,72615;0,02383
136,20001;4,54008;1733,43383;0,02388
136,40001;4,54669;1735,85285;0,02392
136,60001;4,55333;1737,30366;0,02397
136,80001;4,56002;1739,68803;0,02402
137,00001;4,56663;1741,10439;0,02407
137,20001;4,57327;1742,58649;0,02412
137,40001;4,57999;1744,84253;0,02416
137,60001;4,58666;1747,05163;0,02421
137,80001;4,59327;1747,96972;0,02426
138,00001;4,60002;1749,87167;0,02431
138,20001;4,60675;1751,14069;0,02436
138,40001;4,61333;1753,83873;0,02440
138,60001;4,61997;1755,43986;0,02445
138,80001;4,62663;1756,88434;0,02450
139,00001;4,63330;1758,13138;0,02455
139,20001;4,63999;1760,54724;0,02460
139,40001;4,64675;1762,02636;0,02464
139,60001;4,65341;1764,96860;0,02469
139,80001;4,65997;1765,75202;0,02474
140,00001;4,66669;1768,14590;0,02479
140,20001;4,67338;1769,44304;0,02484
140,40001;4,68002;1771,84641;0,02489
140,60001;4,68666;1772,62034;0,02494
140,80001;4,69336;1775,85091;0,02499
141,00001;4,70005;1776,46521;0,02504
141,20001;4,70666;1778,49252;0,02508
141,40001;4,71336;1780,17821;0,02514
141,60001;4,72002;1782,00509;0,02518
141,80001;4,72660;1782,72892;0,02523
142,00001;4,73336;1784,84395;0,02528
142,20001;4,74008;1786,52033;0,02533
142,40001;4,74666;1788,21553;0,02538
142,60001;4,75336;1789,98280;0,02543
142,80001;4,76002;1792,24499;0,02548
143,00001;4,76666;1793,50786;0,02553
143,20001;4,77330;1795,09334;0,02558
143,40001;4,77999;1796,14294;0,02563
143,60001;4,78666;1798,77821;0,02568
143,80001;4,79324;1799,96267;0,02573
144,00001;4,80005;1802,18425;0,02578
144,20001;4,80678;1803,61625;0,02583
144,40001;4,81336;1805,38986;0,02588
144,60001;4,81999;1806,79038;0,02593
144,80001;4,82669;1808,28813;0,02598
145,00001;4,83336;1810,06789;0,02603
145,20001;4,83994;1811,85398;0,02608
145,40001;4,84669;1813,47392;0,02613
145,60001;4,85338;1815,76461;0,02618
145,80001;4,85997;1816,47576;0,02623
146,00001;4,86669;1818,54703;0,02628
146,20001;4,87338;1820,14201;0,02633
146,40001;4,87999;1822,17862;0,02638
146,60001;4,88663;1823,37873;0,02643
146,80001;4,89333;1825,23690;0,02648
147,00001;4,90002;1826,55286;0,02654
147,20001;4,90666;1828,02882;0,02658
147,40001;4,91336;1829,41053;0,02664
147,60001;4,92002;1831,71686;0,02669
147,80001;4,92660;1832,61614;0,02674
148,00001;4,93336;1834,63097;0,02679
148,20001;4,94008;1835,56788;0,02684
148,40001;4,94669;1837,87718;0,02689
148,60001;4,95336;1839,45633;0,02694
148,80001;4,96008;1840,49979;0,02699
149,00001;4,96672;1841,54008;0,02704
149,20001;4,97330;1843,74601;0,02709
149,40001;4,97999;1845,10276;0,02715
149,60001;4,98663;1847,22412;0,02720
149,80001;4,99324;1847,78497;0,02725
150,00001;5,00002;1849,78731;0,02730
150,20001;5,00675;1850,95295;0,02735
150,40001;5,01333;1853,44405;0,02741
150,60001;5,01999;1854,70674;0,02746
150,80001;5,02669;1856,36431;0,02751
151,00001;5,03336;1857,26359;0,02756
151,20001;5,03997;1858,74254;0,02761
151,40001;5,04672;1860,71359;0,02767
151,60001;5,05336;1862,98210;0,02772
151,80001;5,05997;1862,60305;0,02777
152,00001;5,06669;1865,24764;0,02782
152,20001;5,07336;1866,65766;0,02787
152,40001;5,07997;1867,70726;0,02793
152,60001;5,08663;1869,22085;0,02798
152,80001;5,09336;1871,02873;0,02803
153,00001;5,10008;1871,69313;0,02808
153,20001;5,10675;1873,52933;0,02814
153,40001;5,11341;1876,04539;0,02819
153,60001;5,12002;1876,90705;0,02825
153,80001;5,12655;1877,40847;0,02830
154,00001;5,13333;1879,50786;0,02835
154,20001;5,14002;1880,83649;0,02840
154,40001;5,14669;1882,67883;0,02846
154,60001;5,15336;1883,80070;0,02851
154,80001;5,16005;1884,57146;0,02856
155,00001;5,16669;1886,36053;0,02861
155,20001;5,17327;1888,43496;0,02867
155,40001;5,17999;1889,60694;0,02872
155,60001;5,18666;1891,13915;0,02877
155,80001;5,19321;1891,75643;0,02883
156,00001;5,19997;1893,04110;0,02888
156,20001;5,20675;1894,62658;0,02894
156,40001;5,21338;1895,98966;0,02899
156,60001;5,21997;1898,50256;0,02904
156,80001;5,22666;1899,59928;0,02910
157,00001;5,23338;1900,15715;0,02915
157,20001;5,24002;1902,51339;0,02921
157,40001;5,24677;1904,21175;0,02926
157,60001;5,25344;1904,80389;0,02931
157,64601;5,25495;1236,13095;0,03071
157,64801;5,25504;1122,40016;0,03114